trials.thisRepN,trials.thisTrialN,trials.thisN,trials.thisIndex,thisRow.t,notes,trial.started,num_distr,fixation.started,target.started,mouse.started,trial.stopped,mouse.x,mouse.y,mouse.leftButton,mouse.midButton,mouse.rightButton,mouse.time,mouse.clicked_name,participant,session,date,expName,psychopyVersion,frameRate,expStart,
0,0,0,0,0.04644662500004415,,0.01968116700027167,10,0.04644662500004415,0.04644662500004415,0.03553208399989671,3.5910380420000365,[-0.35],[-0.35833333333333334],[1],[0],[0],[3.555142457999864],['target'],330532,001,2024-10-10_22h10.13.287,visual search task ,2024.1.5,None,2024-10-10 22h10.18.473051 +0530,
1,0,1,0,3.6154869169999984,,3.5938455420000537,10,3.6154869169999984,3.6154869169999984,0.014898165999966295,6.772745042000224,[-0.31],[0.195],[1],[0],[0],[3.164312417000019],['target'],330532,001,2024-10-10_22h10.13.287,visual search task ,2024.1.5,None,2024-10-10 22h10.18.473051 +0530,
2,0,2,0,6.787532000000283,,6.77491316700025,5,6.787532000000283,6.787532000000283,0.007872541000324418,8.698605834000318,[-0.025],[-0.17166666666666666],[1],[0],[0],[1.9161168330001601],['target'],330532,001,2024-10-10_22h10.13.287,visual search task ,2024.1.5,None,2024-10-10 22h10.18.473051 +0530,
3,0,3,0,8.713860458999989,,8.700893833999999,5,8.713860458999989,8.713860458999989,0.008112458000141487,10.76528295900016,[-0.11666666666666667],[-0.285],[1],[0],[0],[2.0566305829997873],['target'],330532,001,2024-10-10_22h10.13.287,visual search task ,2024.1.5,None,2024-10-10 22h10.18.473051 +0530,
4,0,4,0,10.789880875000108,,10.76767450000034,10,10.789880875000108,10.789880875000108,0.015258041999913985,12.572603084000093,[0.11666666666666667],[0.23666666666666666],[1],[0],[0],[1.7900612920002459],['target'],330532,001,2024-10-10_22h10.13.287,visual search task ,2024.1.5,None,2024-10-10 22h10.18.473051 +0530,
5,0,5,0,12.58749329200009,,12.57480650000025,5,12.58749329200009,12.58749329200009,0.007791208000071492,14.071656375000202,[0.31166666666666665],[0.4266666666666667],[1],[0],[0],[1.4893834580002476],['target'],330532,001,2024-10-10_22h10.13.287,visual search task ,2024.1.5,None,2024-10-10 22h10.18.473051 +0530,
6,0,6,0,14.096066375000191,,14.074032542000168,10,14.096066375000191,14.096066375000191,0.015181916999608802,17.20660941699998,[-0.29833333333333334],[-0.4816666666666667],[1],[0],[0],[3.1177288339999905],['target'],330532,001,2024-10-10_22h10.13.287,visual search task ,2024.1.5,None,2024-10-10 22h10.18.473051 +0530,
7,0,7,0,17.230437791999975,,17.20883895900033,10,17.230437791999975,17.230437791999975,0.014708917000007204,19.48969704199999,[0.44],[0.405],[1],[0],[0],[2.2664538329995594],['target'],330532,001,2024-10-10_22h10.13.287,visual search task ,2024.1.5,None,2024-10-10 22h10.18.473051 +0530,
8,0,8,0,19.50471545900018,,19.491866458999993,5,19.50471545900018,19.50471545900018,0.007822292000128073,21.138457584000207,[0.09833333333333333],[-0.26166666666666666],[1],[0],[0],[1.63902462499982],['target'],330532,001,2024-10-10_22h10.13.287,visual search task ,2024.1.5,None,2024-10-10 22h10.18.473051 +0530,
9,0,9,0,21.153810458999942,,21.140783917000135,5,21.153810458999942,21.153810458999942,0.008155583000188926,23.465982000000167,[-0.05333333333333334],[-0.49166666666666664],[1],[0],[0],[2.3174171249997926],['target'],330532,001,2024-10-10_22h10.13.287,visual search task ,2024.1.5,None,2024-10-10 22h10.18.473051 +0530,
10,0,10,0,23.481595749999997,,23.46832916700032,5,23.481595749999997,23.481595749999997,0.008238375000019005,25.705275625000013,[0.235],[-0.48333333333333334],[1],[0],[0],[2.2290271670003676],['target'],330532,001,2024-10-10_22h10.13.287,visual search task ,2024.1.5,None,2024-10-10 22h10.18.473051 +0530,
11,0,11,0,25.720412874999965,,25.70754241700024,5,25.720412874999965,25.720412874999965,0.008011124999939057,27.598989459000222,[-0.425],[0.07166666666666667],[1],[0],[0],[1.88379254199981],['target'],330532,001,2024-10-10_22h10.13.287,visual search task ,2024.1.5,None,2024-10-10 22h10.18.473051 +0530,
12,0,12,0,27.614259375000074,,27.601346250000006,5,27.614259375000074,27.614259375000074,0.008209624999835796,29.588147124999978,[0.3616666666666667],[0.11666666666666667],[1],[0],[0],[1.978967792000276],['target'],330532,001,2024-10-10_22h10.13.287,visual search task ,2024.1.5,None,2024-10-10 22h10.18.473051 +0530,
13,0,13,0,29.60346141700029,,29.59044079200021,5,29.60346141700029,29.60346141700029,0.008026458000131242,31.28232724999998,[-0.04833333333333333],[0.37833333333333335],[1],[0],[0],[1.6842343330004041],['target'],330532,001,2024-10-10_22h10.13.287,visual search task ,2024.1.5,None,2024-10-10 22h10.18.473051 +0530,
14,0,14,0,31.297710250000364,,31.28466579199994,5,31.297710250000364,31.297710250000364,0.008171333000063896,33.13844666700015,[0.49166666666666664],[-0.155],[1],[0],[0],[1.8459832080002343],['target'],330532,001,2024-10-10_22h10.13.287,visual search task ,2024.1.5,None,2024-10-10 22h10.18.473051 +0530,
15,0,15,0,33.153788459000225,,33.14070345900018,5,33.153788459000225,33.153788459000225,0.00805279199994402,35.00491983400025,[-0.09833333333333333],[0.015],[1],[0],[0],[1.8565221250000832],['target'],330532,001,2024-10-10_22h10.13.287,visual search task ,2024.1.5,None,2024-10-10 22h10.18.473051 +0530,
16,0,16,0,35.02964608399998,,35.00723916700008,10,35.02964608399998,35.02964608399998,0.015561166999759735,36.83166420900034,[0.115],[-0.31666666666666665],[1],[0],[0],[1.8091497909999816],['target'],330532,001,2024-10-10_22h10.13.287,visual search task ,2024.1.5,None,2024-10-10 22h10.18.473051 +0530,
17,0,17,0,36.85517737500004,,36.83380720900004,10,36.85517737500004,36.85517737500004,0.014515041999857203,38.84868737500028,[0.32666666666666666],[-0.105],[1],[0],[0],[2.0006907500001034],['target'],330532,001,2024-10-10_22h10.13.287,visual search task ,2024.1.5,None,2024-10-10 22h10.18.473051 +0530,
18,0,18,0,38.86349695900026,,38.85084270900006,5,38.86349695900026,38.86349695900026,0.007923000000118918,40.62188220899998,[0.155],[0.023333333333333334],[1],[0],[0],[1.763463750000028],['target'],330532,001,2024-10-10_22h10.13.287,visual search task ,2024.1.5,None,2024-10-10 22h10.18.473051 +0530,
19,0,19,0,40.637133791999986,,40.62416962500038,5,40.637133791999986,40.637133791999986,0.00808099999994738,42.78236654200009,[-0.34],[0.16833333333333333],[1],[0],[0],[2.1504525000000285],['target'],330532,001,2024-10-10_22h10.13.287,visual search task ,2024.1.5,None,2024-10-10 22h10.18.473051 +0530,
20,0,20,0,42.80665358400029,,42.78466075000006,10,42.80665358400029,42.80665358400029,0.015067958999679831,45.79870250000022,[-0.305],[-0.105],[1],[0],[0],[2.9993533750002825],['target'],330532,001,2024-10-10_22h10.13.287,visual search task ,2024.1.5,None,2024-10-10 22h10.18.473051 +0530,
21,0,21,0,45.813680042000215,,45.800869417000285,5,45.813680042000215,45.813680042000215,0.007761249999930442,48.18242670900008,[0.04],[-0.4583333333333333],[1],[0],[0],[2.374152417000005],['target'],330532,001,2024-10-10_22h10.13.287,visual search task ,2024.1.5,None,2024-10-10 22h10.18.473051 +0530,
22,0,22,0,48.20664729200007,,48.18473437500006,10,48.20664729200007,48.20664729200007,0.015086082999914652,50.32306958400022,[-0.18666666666666668],[0.09166666666666666],[1],[0],[0],[2.123603290999654],['target'],330532,001,2024-10-10_22h10.13.287,visual search task ,2024.1.5,None,2024-10-10 22h10.18.473051 +0530,
23,0,23,0,50.346751792000305,,50.325269041999945,10,50.346751792000305,50.346751792000305,0.014625125000293338,53.024733459000345,[-0.37],[-0.37666666666666665],[1],[0],[0],[2.6850715840000703],['target'],330532,001,2024-10-10_22h10.13.287,visual search task ,2024.1.5,None,2024-10-10 22h10.18.473051 +0530,
24,0,24,0,53.04989266700022,,53.02702475000024,10,53.04989266700022,53.04989266700022,0.01591916699999274,54.65640779200021,[-0.09],[-0.13333333333333333],[1],[0],[0],[1.613759334000406],['target'],330532,001,2024-10-10_22h10.13.287,visual search task ,2024.1.5,None,2024-10-10 22h10.18.473051 +0530,
25,0,25,0,54.68008845900022,,54.65859716700015,10,54.68008845900022,54.68008845900022,0.014662333999694965,56.35654116700016,[-0.32],[0.06666666666666667],[1],[0],[0],[1.6836671659998501],['target'],330532,001,2024-10-10_22h10.13.287,visual search task ,2024.1.5,None,2024-10-10 22h10.18.473051 +0530,
26,0,26,0,56.38035741700014,,56.358746208999946,10,56.38035741700014,56.38035741700014,0.014636791999691923,58.072870459000114,[-0.08166666666666667],[0.21666666666666667],[1],[0],[0],[1.6998274589996072],['target'],330532,001,2024-10-10_22h10.13.287,visual search task ,2024.1.5,None,2024-10-10 22h10.18.473051 +0530,
27,0,27,0,58.09681095900032,,58.07510945900003,10,58.09681095900032,58.09681095900032,0.014648957999725098,59.565437167000255,[0.06666666666666667],[0.17666666666666667],[1],[0],[0],[1.4760547079999924],['target'],330532,001,2024-10-10_22h10.13.287,visual search task ,2024.1.5,None,2024-10-10 22h10.18.473051 +0530,
28,0,28,0,59.58020587500005,,59.56760029199995,5,59.58020587500005,59.58020587500005,0.007756999999855907,61.10554366700035,[-0.028333333333333332],[0.055],[1],[0],[0],[1.530442833000052],['target'],330532,001,2024-10-10_22h10.13.287,visual search task ,2024.1.5,None,2024-10-10 22h10.18.473051 +0530,
29,0,29,0,61.130006500000036,,61.10790170900009,10,61.130006500000036,61.130006500000036,0.015104500000234111,63.17278120900028,[-0.21],[-0.405],[1],[0],[0],[2.050111874999857],['target'],330532,001,2024-10-10_22h10.13.287,visual search task ,2024.1.5,None,2024-10-10 22h10.18.473051 +0530,
30,0,30,0,63.18766729200024,,63.17494654200027,5,63.18766729200024,63.18766729200024,0.007877666999775101,64.89893075000009,[-0.2866666666666667],[0.27166666666666667],[1],[0],[0],[1.7164450000000215],['target'],330532,001,2024-10-10_22h10.13.287,visual search task ,2024.1.5,None,2024-10-10 22h10.18.473051 +0530,
31,0,31,0,64.9142205420003,,64.9011746250003,5,64.9142205420003,64.9142205420003,0.00792787499995029,66.71572320900032,[0.37666666666666665],[0.46],[1],[0],[0],[1.8069802909999453],['target'],330532,001,2024-10-10_22h10.13.287,visual search task ,2024.1.5,None,2024-10-10 22h10.18.473051 +0530,
32,0,32,0,66.73990745900028,,66.71799950000013,10,66.73990745900028,66.73990745900028,0.014949750000141648,68.2149400000003,[0.3883333333333333],[0.29333333333333333],[1],[0],[0],[1.482337166000434],['target'],330532,001,2024-10-10_22h10.13.287,visual search task ,2024.1.5,None,2024-10-10 22h10.18.473051 +0530,
33,0,33,0,68.22999241700018,,68.21712412500028,5,68.22999241700018,68.22999241700018,0.007742415999928198,70.68203775000029,[0.27166666666666667],[-0.23333333333333334],[1],[0],[0],[2.4574857080001493],['target'],330532,001,2024-10-10_22h10.13.287,visual search task ,2024.1.5,None,2024-10-10 22h10.18.473051 +0530,
34,0,34,0,70.69732058399995,,70.68436008400022,5,70.69732058399995,70.69732058399995,0.008086916000138444,72.88862450000033,[0.14833333333333334],[-0.051666666666666666],[1],[0],[0],[2.1965596669997467],['target'],330532,001,2024-10-10_22h10.13.287,visual search task ,2024.1.5,None,2024-10-10 22h10.18.473051 +0530,
35,0,35,0,72.90366520900034,,72.8908797920003,5,72.90366520900034,72.90366520900034,0.007939124999666092,75.5151947090003,[0.34833333333333333],[0.15666666666666668],[1],[0],[0],[2.6167075829998794],['target'],330532,001,2024-10-10_22h10.13.287,visual search task ,2024.1.5,None,2024-10-10 22h10.18.473051 +0530,
36,0,36,0,75.53909975000033,,75.51750608400016,10,75.53909975000033,75.53909975000033,0.014757083999938914,77.06551695899998,[0.07666666666666666],[-0.08666666666666667],[1],[0],[0],[1.533625958000357],['target'],330532,001,2024-10-10_22h10.13.287,visual search task ,2024.1.5,None,2024-10-10 22h10.18.473051 +0530,
37,0,37,0,77.08033750000004,,77.06769058400005,5,77.08033750000004,77.08033750000004,0.00770329099987066,78.57216245900008,[0.19333333333333333],[0.21166666666666667],[1],[0],[0],[1.4970870000001923],['target'],330532,001,2024-10-10_22h10.13.287,visual search task ,2024.1.5,None,2024-10-10 22h10.18.473051 +0530,
38,0,38,0,78.65237379200016,,78.57449983400011,5,78.65237379200016,78.65237379200016,0.0724235839998073,80.15519433400004,[0.14666666666666667],[-0.14],[1],[0],[0],[1.5085858330003248],['target'],330532,001,2024-10-10_22h10.13.287,visual search task ,2024.1.5,None,2024-10-10 22h10.18.473051 +0530,
39,0,39,0,80.17039329199997,,80.15745316700031,5,80.17039329199997,80.17039329199997,0.00799179199975697,82.55507787500028,[0.30666666666666664],[0.15833333333333333],[1],[0],[0],[2.3899987080003484],['target'],330532,001,2024-10-10_22h10.13.287,visual search task ,2024.1.5,None,2024-10-10 22h10.18.473051 +0530,
40,0,40,0,82.57071274999998,,82.55745779200015,5,82.57071274999998,82.57071274999998,0.008193166000182828,84.46528041700003,[-0.13833333333333334],[0.465],[1],[0],[0],[1.9000042919997213],['target'],330532,001,2024-10-10_22h10.13.287,visual search task ,2024.1.5,None,2024-10-10 22h10.18.473051 +0530,
41,0,41,0,84.4807782920002,,84.467614959,5,84.4807782920002,84.4807782920002,0.008032583999920462,86.89920545900031,[0.455],[-0.47],[1],[0],[0],[2.423923208999895],['target'],330532,001,2024-10-10_22h10.13.287,visual search task ,2024.1.5,None,2024-10-10 22h10.18.473051 +0530,
42,0,42,0,86.91420104200006,,86.90145458400002,5,86.91420104200006,86.91420104200006,0.007977583999945637,88.83247600000004,[-0.015],[0.15166666666666667],[1],[0],[0],[1.9233704580001358],['target'],330532,001,2024-10-10_22h10.13.287,visual search task ,2024.1.5,None,2024-10-10 22h10.18.473051 +0530,
43,0,43,0,88.84791870900017,,88.8348148340001,5,88.84791870900017,88.84791870900017,0.008166917000380636,90.33868195900004,[0.215],[-0.265],[1],[0],[0],[1.4960891659998197],['target'],330532,001,2024-10-10_22h10.13.287,visual search task ,2024.1.5,None,2024-10-10 22h10.18.473051 +0530,
44,0,44,0,90.35389329200007,,90.34092774999999,5,90.35389329200007,90.35389329200007,0.008047207999879902,91.65522445900024,[0.29333333333333333],[-0.24333333333333335],[1],[0],[0],[1.3065682920000654],['target'],330532,001,2024-10-10_22h10.13.287,visual search task ,2024.1.5,None,2024-10-10 22h10.18.473051 +0530,
45,0,45,0,91.6792730420002,,91.65756141700012,10,91.6792730420002,91.6792730420002,0.014888333000271814,93.08992695899997,[0.30833333333333335],[0.14333333333333334],[1],[0],[0],[1.4178289999999834],['target'],330532,001,2024-10-10_22h10.13.287,visual search task ,2024.1.5,None,2024-10-10 22h10.18.473051 +0530,
46,0,46,0,93.11425891700037,,93.09211995900023,10,93.11425891700037,93.11425891700037,0.014899999999670399,94.7315507090002,[-0.11666666666666667],[0.14333333333333334],[1],[0],[0],[1.62484137499996],['target'],330532,001,2024-10-10_22h10.13.287,visual search task ,2024.1.5,None,2024-10-10 22h10.18.473051 +0530,
47,0,47,0,94.74647937500004,,94.7337523340002,5,94.74647937500004,94.74647937500004,0.007738291999885405,96.32185537500027,[0.4116666666666667],[-0.14333333333333334],[1],[0],[0],[1.580715582999801],['target'],330532,001,2024-10-10_22h10.13.287,visual search task ,2024.1.5,None,2024-10-10 22h10.18.473051 +0530,
48,0,48,0,96.3372276250002,,96.32413020900003,5,96.3372276250002,96.3372276250002,0.008019291999971756,97.88882025000021,[-0.37833333333333335],[0.26],[1],[0],[0],[1.5569761669999025],['target'],330532,001,2024-10-10_22h10.13.287,visual search task ,2024.1.5,None,2024-10-10 22h10.18.473051 +0530,
49,0,49,0,97.91326295900035,,97.8911215840003,10,97.91326295900035,97.91326295900035,0.014848415999949793,100.55624462500009,[0.17],[-0.12],[1],[0],[0],[2.6505968340002255],['target'],330532,001,2024-10-10_22h10.13.287,visual search task ,2024.1.5,None,2024-10-10 22h10.18.473051 +0530,
50,0,50,0,100.58024404200023,,100.55841083400037,10,100.58024404200023,100.58024404200023,0.014696582999931707,103.76544545900015,[0.065],[0.32],[1],[0],[0],[3.1926805830003104],['target'],330532,001,2024-10-10_22h10.13.287,visual search task ,2024.1.5,None,2024-10-10 22h10.18.473051 +0530,
51,0,51,0,103.78047329200035,,103.76763262500026,5,103.78047329200035,103.78047329200035,0.007895665999967605,105.55512487500027,[-0.31],[-0.355],[1],[0],[0],[1.7799390420000236],['target'],330532,001,2024-10-10_22h10.13.287,visual search task ,2024.1.5,None,2024-10-10 22h10.18.473051 +0530,
52,0,52,0,105.57035641700031,,105.55738625000004,5,105.57035641700031,105.57035641700031,0.007978917000400543,107.11538900000005,[0.0033333333333333335],[0.285],[1],[0],[0],[1.550347000000329],['target'],330532,001,2024-10-10_22h10.13.287,visual search task ,2024.1.5,None,2024-10-10 22h10.18.473051 +0530,
53,0,53,0,107.13942841700009,,107.11767325000028,10,107.13942841700009,107.13942841700009,0.014686250000067957,109.0731033750003,[-0.16666666666666666],[0.19166666666666668],[1],[0],[0],[1.9410776670001724],['target'],330532,001,2024-10-10_22h10.13.287,visual search task ,2024.1.5,None,2024-10-10 22h10.18.473051 +0530,
54,0,54,0,109.09702808400016,,109.07534191700006,10,109.09702808400016,109.09702808400016,0.014792208000017126,110.83165179200023,[-0.39],[0.4716666666666667],[1],[0],[0],[1.7418166249999558],[],330532,001,2024-10-10_22h10.13.287,visual search task ,2024.1.5,None,2024-10-10 22h10.18.473051 +0530,
55,0,55,0,110.85541487499995,,110.83385758400027,10,110.85541487499995,110.85541487499995,0.014611542000238842,113.47346537500016,[0.47833333333333333],[0.05333333333333334],[1],[0],[0],[2.625293083000088],['target'],330532,001,2024-10-10_22h10.13.287,visual search task ,2024.1.5,None,2024-10-10 22h10.18.473051 +0530,
56,0,56,0,113.48852241700024,,113.47570258400037,5,113.48852241700024,113.48852241700024,0.007869208000101935,115.85550754199994,[-0.23833333333333334],[0.03666666666666667],[1],[0],[0],[2.372271540999918],['target'],330532,001,2024-10-10_22h10.13.287,visual search task ,2024.1.5,None,2024-10-10 22h10.18.473051 +0530,
57,0,57,0,115.87092658400024,,115.85784629199998,5,115.87092658400024,115.87092658400024,0.008042208000006212,117.82193649999999,[-0.03666666666666667],[-0.36666666666666664],[1],[0],[0],[1.9564004590001787],['target'],330532,001,2024-10-10_22h10.13.287,visual search task ,2024.1.5,None,2024-10-10 22h10.18.473051 +0530,
58,0,58,0,117.837663625,,117.82421950000025,5,117.837663625,117.837663625,0.008085624999694119,119.37241412499998,[0.41],[0.06166666666666667],[1],[0],[0],[1.5404290420001416],['target'],330532,001,2024-10-10_22h10.13.287,visual search task ,2024.1.5,None,2024-10-10 22h10.18.473051 +0530,
59,0,59,0,119.38753104200032,,119.37467262500013,5,119.38753104200032,119.38753104200032,0.007950291999804904,121.24872570900015,[0.16],[0.415],[1],[0],[0],[1.8664151250000032],['target'],330532,001,2024-10-10_22h10.13.287,visual search task ,2024.1.5,None,2024-10-10 22h10.18.473051 +0530,
60,0,60,0,121.26418154200019,,121.25099112500038,5,121.26418154200019,121.26418154200019,0.007999666000159777,123.77218354200022,[-0.16],[-0.48833333333333334],[1],[0],[0],[2.5134953330002645],['target'],330532,001,2024-10-10_22h10.13.287,visual search task ,2024.1.5,None,2024-10-10 22h10.18.473051 +0530,
61,0,61,0,123.79670162499997,,123.77447195900004,10,123.79670162499997,123.79670162499997,0.015113041999939014,125.72314395900003,[0.44666666666666666],[0.44],[1],[0],[0],[1.9338952499997504],['target'],330532,001,2024-10-10_22h10.13.287,visual search task ,2024.1.5,None,2024-10-10 22h10.18.473051 +0530,
62,0,62,0,125.74753083400037,,125.72533337499999,10,125.74753083400037,125.74753083400037,0.014888167000208341,128.6993856250001,[-0.2683333333333333],[0.07166666666666667],[1],[0],[0],[2.959501833000104],['target'],330532,001,2024-10-10_22h10.13.287,visual search task ,2024.1.5,None,2024-10-10 22h10.18.473051 +0530,
63,0,63,0,128.72407679200023,,128.70162733400002,10,128.72407679200023,128.72407679200023,0.015187750000222877,130.30678204200012,[0.43],[0.4],[1],[0],[0],[1.5903048330001184],['target'],330532,001,2024-10-10_22h10.13.287,visual search task ,2024.1.5,None,2024-10-10 22h10.18.473051 +0530,
64,0,64,0,130.33082404200013,,130.30901970900004,10,130.33082404200013,130.33082404200013,0.014829833000021608,132.21490458400012,[-0.48333333333333334],[-0.18666666666666668],[1],[0],[0],[1.8914001660000395],['target'],330532,001,2024-10-10_22h10.13.287,visual search task ,2024.1.5,None,2024-10-10 22h10.18.473051 +0530,
65,0,65,0,132.23918070900027,,132.2170983750002,10,132.23918070900027,132.23918070900027,0.014726625000093918,134.7816820840003,[-0.46],[0.285],[1],[0],[0],[2.550202334000005],['target'],330532,001,2024-10-10_22h10.13.287,visual search task ,2024.1.5,None,2024-10-10 22h10.18.473051 +0530,
66,0,66,0,134.80594608399997,,134.78386387499995,10,134.80594608399997,134.80594608399997,0.014722959000209812,136.66570520899995,[-0.3933333333333333],[-0.455],[1],[0],[0],[1.8674627499999588],['target'],330532,001,2024-10-10_22h10.13.287,visual search task ,2024.1.5,None,2024-10-10 22h10.18.473051 +0530,
67,0,67,0,136.6898002500002,,136.6678937920001,10,136.6898002500002,136.6898002500002,0.014811916999860841,138.4826457920003,[-0.44],[0.08166666666666667],[1],[0],[0],[1.8002020410003752],['target'],330532,001,2024-10-10_22h10.13.287,visual search task ,2024.1.5,None,2024-10-10 22h10.18.473051 +0530,
68,0,68,0,138.500681,,138.48497629200028,5,138.500681,138.500681,0.008979041999737092,140.1054653340002,[0.10333333333333333],[-0.17333333333333334],[1],[0],[0],[1.6118465419999666],['target'],330532,001,2024-10-10_22h10.13.287,visual search task ,2024.1.5,None,2024-10-10 22h10.18.473051 +0530,
69,0,69,0,140.12110737500007,,140.10772850000012,5,140.12110737500007,140.12110737500007,0.008042875000228378,141.60547062500018,[-0.07833333333333334],[-0.26166666666666666],[1],[0],[0],[1.4900205839999217],['target'],330532,001,2024-10-10_22h10.13.287,visual search task ,2024.1.5,None,2024-10-10 22h10.18.473051 +0530,
70,0,70,0,141.629830459,,141.60773608399995,10,141.629830459,141.629830459,0.014878417000090849,144.24900979200038,[-0.135],[-0.15666666666666668],[1],[0],[0],[2.6267647500003477],['target'],330532,001,2024-10-10_22h10.13.287,visual search task ,2024.1.5,None,2024-10-10 22h10.18.473051 +0530,
71,0,71,0,144.26393774999997,,144.2511917920001,5,144.26393774999997,144.26393774999997,0.007746624999981577,146.08235237500003,[0.44666666666666666],[-0.25],[1],[0],[0],[1.823761249999734],['target'],330532,001,2024-10-10_22h10.13.287,visual search task ,2024.1.5,None,2024-10-10 22h10.18.473051 +0530,
72,0,72,0,146.1065934170001,,146.08457662499995,10,146.1065934170001,146.1065934170001,0.014767458000278566,148.50655295900015,[-0.2866666666666667],[-0.45166666666666666],[1],[0],[0],[2.407542166999974],['target'],330532,001,2024-10-10_22h10.13.287,visual search task ,2024.1.5,None,2024-10-10 22h10.18.473051 +0530,
73,0,73,0,148.52190025000027,,148.50872229200013,5,148.52190025000027,148.52190025000027,0.007941040999867255,150.22189258400022,[-0.041666666666666664],[-0.39666666666666667],[1],[0],[0],[1.705535250000139],['target'],330532,001,2024-10-10_22h10.13.287,visual search task ,2024.1.5,None,2024-10-10 22h10.18.473051 +0530,
74,0,74,0,150.23722512500035,,150.22418745899995,5,150.23722512500035,150.23722512500035,0.007881750000251486,152.8823765000002,[-0.425],[-0.42],[1],[0],[0],[2.650672792000023],['target'],330532,001,2024-10-10_22h10.13.287,visual search task ,2024.1.5,None,2024-10-10 22h10.18.473051 +0530,
75,0,75,0,152.90689366700008,,152.88464154200028,10,152.90689366700008,152.90689366700008,0.014961333999963244,156.3654724590001,[-0.22333333333333333],[-0.22666666666666666],[1],[0],[0],[3.4662381670000286],['target'],330532,001,2024-10-10_22h10.13.287,visual search task ,2024.1.5,None,2024-10-10 22h10.18.473051 +0530,
76,0,76,0,156.38065529200003,,156.3676692920003,5,156.38065529200003,156.38065529200003,0.007849042000088957,158.3719567090002,[-0.20333333333333334],[0.445],[1],[0],[0],[1.9967977910000627],['target'],330532,001,2024-10-10_22h10.13.287,visual search task ,2024.1.5,None,2024-10-10 22h10.18.473051 +0530,
77,0,77,0,158.3966625840003,,158.37429187500038,10,158.3966625840003,158.3966625840003,0.015243291999922803,161.1153330000002,[-0.18333333333333332],[-0.43333333333333335],[1],[0],[0],[2.7262020830003166],['target'],330532,001,2024-10-10_22h10.13.287,visual search task ,2024.1.5,None,2024-10-10 22h10.18.473051 +0530,
78,0,78,0,161.13054016700016,,161.11752437500036,5,161.13054016700016,161.13054016700016,0.007813208000243321,163.69911720900018,[0.20833333333333334],[-0.25166666666666665],[1],[0],[0],[2.574126707999767],['target'],330532,001,2024-10-10_22h10.13.287,visual search task ,2024.1.5,None,2024-10-10 22h10.18.473051 +0530,
79,0,79,0,163.72352445900015,,163.70139945900019,10,163.72352445900015,163.72352445900015,0.0148433749996002,166.1152776250001,[0.255],[0.4033333333333333],[1],[0],[0],[2.399422707999747],['target'],330532,001,2024-10-10_22h10.13.287,visual search task ,2024.1.5,None,2024-10-10 22h10.18.473051 +0530,
80,0,80,0,166.13949700000012,,166.11744829200006,10,166.13949700000012,166.13949700000012,0.014789958999699593,168.6899515,[-0.05],[-0.37833333333333335],[1],[0],[0],[2.558059250000042],['target'],330532,001,2024-10-10_22h10.13.287,visual search task ,2024.1.5,None,2024-10-10 22h10.18.473051 +0530,
81,0,81,0,168.70531579199996,,168.69214283400015,5,168.70531579199996,168.70531579199996,0.008168625000052998,170.29873745900022,[-0.09166666666666666],[-0.43666666666666665],[1],[0],[0],[1.5987294579999798],['target'],330532,001,2024-10-10_22h10.13.287,visual search task ,2024.1.5,None,2024-10-10 22h10.18.473051 +0530,
82,0,82,0,170.31393991699997,,170.300977375,5,170.31393991699997,170.31393991699997,0.007876333000240265,172.17238629200028,[0.085],[0.03333333333333333],[1],[0],[0],[1.8638432920001833],['target'],330532,001,2024-10-10_22h10.13.287,visual search task ,2024.1.5,None,2024-10-10 22h10.18.473051 +0530,
83,0,83,0,172.18798866700035,,172.17471133400022,5,172.18798866700035,172.18798866700035,0.008170874999905209,174.08897100000013,[0.09333333333333334],[-0.455],[1],[0],[0],[1.9064006670000708],['target'],330532,001,2024-10-10_22h10.13.287,visual search task ,2024.1.5,None,2024-10-10 22h10.18.473051 +0530,
84,0,84,0,174.11361991700005,,174.09126733400035,10,174.11361991700005,174.11361991700005,0.015034000000014203,175.7988021670003,[-0.11],[0.28833333333333333],[1],[0],[0],[1.6928795829999217],['target'],330532,001,2024-10-10_22h10.13.287,visual search task ,2024.1.5,None,2024-10-10 22h10.18.473051 +0530,
85,0,85,0,175.8228129590002,,175.8010142090002,10,175.8228129590002,175.8228129590002,0.014842125000086526,177.689885625,[0.03333333333333333],[0.2783333333333333],[1],[0],[0],[1.8744017090002671],['target'],330532,001,2024-10-10_22h10.13.287,visual search task ,2024.1.5,None,2024-10-10 22h10.18.473051 +0530,
86,0,86,0,177.71390954200024,,177.6921405420003,10,177.71390954200024,177.71390954200024,0.014737499999682768,180.57326020900018,[0.31666666666666665],[-0.14166666666666666],[1],[0],[0],[2.866696999999931],['target'],330532,001,2024-10-10_22h10.13.287,visual search task ,2024.1.5,None,2024-10-10 22h10.18.473051 +0530,
87,0,87,0,180.5884443750001,,180.57552816700036,5,180.5884443750001,180.5884443750001,0.007931416000246827,182.13879570900008,[0.2683333333333333],[-0.02],[1],[0],[0],[1.5557009160002053],['target'],330532,001,2024-10-10_22h10.13.287,visual search task ,2024.1.5,None,2024-10-10 22h10.18.473051 +0530,
88,0,88,0,182.16289733400026,,182.14108883400013,10,182.16289733400026,182.16289733400026,0.014858417000141344,184.45695995899996,[-0.2916666666666667],[0.4],[1],[0],[0],[2.3013472910001838],['target'],330532,001,2024-10-10_22h10.13.287,visual search task ,2024.1.5,None,2024-10-10 22h10.18.473051 +0530,
89,0,89,0,184.48149041700026,,184.45926025000017,10,184.48149041700026,184.48149041700026,0.015060000000175933,186.1156672090001,[0.36],[0.32166666666666666],[1],[0],[0],[1.6417298749997826],['target'],330532,001,2024-10-10_22h10.13.287,visual search task ,2024.1.5,None,2024-10-10 22h10.18.473051 +0530,
90,0,90,0,186.13061795900012,,186.11785995900027,5,186.13061795900012,186.13061795900012,0.007804458999999042,187.86572212500005,[0.16333333333333333],[-0.37],[1],[0],[0],[1.7404017920002843],[],330532,001,2024-10-10_22h10.13.287,visual search task ,2024.1.5,None,2024-10-10 22h10.18.473051 +0530,
91,0,91,0,187.88093583399996,,187.86800283399998,5,187.88093583399996,187.88093583399996,0.007982666999851062,191.61596400000008,[-0.43333333333333335],[-0.3983333333333333],[1],[0],[0],[3.7403245840000636],['target'],330532,001,2024-10-10_22h10.13.287,visual search task ,2024.1.5,None,2024-10-10 22h10.18.473051 +0530,
92,0,92,0,191.63142433400026,,191.61831829200037,5,191.63142433400026,191.63142433400026,0.007980040999882476,193.54903479200038,[0.3983333333333333],[0.36833333333333335],[1],[0],[0],[1.923107957999946],['target'],330532,001,2024-10-10_22h10.13.287,visual search task ,2024.1.5,None,2024-10-10 22h10.18.473051 +0530,
93,0,93,0,193.5741213340002,,193.5513788340004,10,193.5741213340002,193.5741213340002,0.015576750000036554,195.02321683400032,[-0.29833333333333334],[0.15666666666666668],[1],[0],[0],[1.4566521250003461],['target'],330532,001,2024-10-10_22h10.13.287,visual search task ,2024.1.5,None,2024-10-10 22h10.18.473051 +0530,
94,0,94,0,195.03843262500004,,195.02545254200004,5,195.03843262500004,195.03843262500004,0.00794504199984658,196.632641875,[0.34833333333333333],[0.04],[1],[0],[0],[1.599560332999772],['target'],330532,001,2024-10-10_22h10.13.287,visual search task ,2024.1.5,None,2024-10-10 22h10.18.473051 +0530,
95,0,95,0,196.64803429200037,,196.63490629200032,5,196.64803429200037,196.64803429200037,0.00789783299978808,198.63279783400003,[0.265],[0.10666666666666667],[1],[0],[0],[1.9903760420002072],['target'],330532,001,2024-10-10_22h10.13.287,visual search task ,2024.1.5,None,2024-10-10 22h10.18.473051 +0530,
96,0,96,0,198.6484324590001,,198.63516616700008,5,198.6484324590001,198.6484324590001,0.008186292000118556,200.42210466699999,[-0.10666666666666667],[-0.35],[1],[0],[0],[1.7790901250000388],['target'],330532,001,2024-10-10_22h10.13.287,visual search task ,2024.1.5,None,2024-10-10 22h10.18.473051 +0530,
97,0,97,0,200.43755850000025,,200.4243523340001,5,200.43755850000025,200.43755850000025,0.008025791000363824,202.05567429200028,[-0.04],[-0.03],[1],[0],[0],[1.623612249999951],['target'],330532,001,2024-10-10_22h10.13.287,visual search task ,2024.1.5,None,2024-10-10 22h10.18.473051 +0530,
98,0,98,0,202.079904875,,202.05793949999997,10,202.079904875,202.079904875,0.014860582999972394,203.93220250000013,[-0.28833333333333333],[0.07166666666666667],[1],[0],[0],[1.8597713340000155],['target'],330532,001,2024-10-10_22h10.13.287,visual search task ,2024.1.5,None,2024-10-10 22h10.18.473051 +0530,
99,0,99,0,203.94749504200036,,203.934375584,5,203.94749504200036,203.94749504200036,0.008046915999784687,206.18268112500027,[0.215],[-0.145],[1],[0],[0],[2.2405834579999464],['target'],330532,001,2024-10-10_22h10.13.287,visual search task ,2024.1.5,None,2024-10-10 22h10.18.473051 +0530,
100,0,100,0,206.1979577090001,,206.18498887500027,5,206.1979577090001,206.1979577090001,0.007930290999865974,208.05542641700004,[-0.19333333333333333],[-0.305],[1],[0],[0],[1.8628114999996797],['target'],330532,001,2024-10-10_22h10.13.287,visual search task ,2024.1.5,None,2024-10-10 22h10.18.473051 +0530,
101,0,101,0,208.07980687500003,,208.05774766700006,10,208.07980687500003,208.07980687500003,0.014848709000034432,209.79867475000037,[0.38166666666666665],[0.2683333333333333],[1],[0],[0],[1.7264168750002682],['target'],330532,001,2024-10-10_22h10.13.287,visual search task ,2024.1.5,None,2024-10-10 22h10.18.473051 +0530,
102,0,102,0,209.8225037090001,,209.80084620900016,10,209.8225037090001,209.8225037090001,0.0146389999999883,211.15658762500016,[0.46],[0.11666666666666667],[1],[0],[0],[1.3414224170001035],['target'],330532,001,2024-10-10_22h10.13.287,visual search task ,2024.1.5,None,2024-10-10 22h10.18.473051 +0530,
103,0,103,0,211.171809167,,211.15875700000015,5,211.171809167,211.171809167,0.00789870799962955,212.7823504170001,[-0.17833333333333334],[-0.18],[1],[0],[0],[1.6160400000003392],['target'],330532,001,2024-10-10_22h10.13.287,visual search task ,2024.1.5,None,2024-10-10 22h10.18.473051 +0530,
104,0,104,0,212.80628608400002,,212.78463250000004,10,212.80628608400002,212.80628608400002,0.014730332999988605,214.5654047920002,[0.3466666666666667],[0.44666666666666666],[1],[0],[0],[1.766420707999714],['target'],330532,001,2024-10-10_22h10.13.287,visual search task ,2024.1.5,None,2024-10-10 22h10.18.473051 +0530,
105,0,105,0,214.5893084170002,,214.56756083400023,10,214.5893084170002,214.5893084170002,0.014737584000158677,215.85645445900036,[0.44],[0.4266666666666667],[1],[0],[0],[1.27450458300018],['target'],330532,001,2024-10-10_22h10.13.287,visual search task ,2024.1.5,None,2024-10-10 22h10.18.473051 +0530,
106,0,106,0,215.871541084,,215.85868550000032,5,215.871541084,215.871541084,0.007907083999725728,219.2555359170001,[-0.3983333333333333],[-0.18666666666666668],[1],[0],[0],[3.3892739580001034],['target'],330532,001,2024-10-10_22h10.13.287,visual search task ,2024.1.5,None,2024-10-10 22h10.18.473051 +0530,
107,0,107,0,219.2797139170002,,219.2577932500003,10,219.2797139170002,219.2797139170002,0.014818541000295227,222.3898704170001,[-0.21],[-0.335],[1],[0],[0],[3.117566958000225],['target'],330532,001,2024-10-10_22h10.13.287,visual search task ,2024.1.5,None,2024-10-10 22h10.18.473051 +0530,
108,0,108,0,222.40516162500035,,222.3920666670001,5,222.40516162500035,222.40516162500035,0.00793645799967635,224.68891212500012,[0.38333333333333336],[-0.33166666666666667],[1],[0],[0],[2.28917383299995],[],330532,001,2024-10-10_22h10.13.287,visual search task ,2024.1.5,None,2024-10-10 22h10.18.473051 +0530,
109,0,109,0,224.7131756670001,,224.6911663750002,10,224.7131756670001,224.7131756670001,0.014847666999685316,227.323009792,[-0.42333333333333334],[0.255],[1],[0],[0],[2.617329874999996],['target'],330532,001,2024-10-10_22h10.13.287,visual search task ,2024.1.5,None,2024-10-10 22h10.18.473051 +0530,
110,0,110,0,227.3469865840002,,227.32524108400003,10,227.3469865840002,227.3469865840002,0.014760208000097919,230.38223854200032,[-0.49333333333333335],[-0.18333333333333332],[1],[0],[0],[3.0425977089998923],['target'],330532,001,2024-10-10_22h10.13.287,visual search task ,2024.1.5,None,2024-10-10 22h10.18.473051 +0530,
111,0,111,0,230.39740712499997,,230.38442966699995,5,230.39740712499997,230.39740712499997,0.007910833999630995,233.7992830840003,[0.235],[-0.4816666666666667],[1],[0],[0],[3.4072873750001236],['target'],330532,001,2024-10-10_22h10.13.287,visual search task ,2024.1.5,None,2024-10-10 22h10.18.473051 +0530,
112,0,112,0,233.8238257500002,,233.80157220900037,10,233.8238257500002,233.8238257500002,0.015025874999992084,235.6744825840001,[-0.28833333333333333],[0.38333333333333336],[1],[0],[0],[1.8582006669998918],['target'],330532,001,2024-10-10_22h10.13.287,visual search task ,2024.1.5,None,2024-10-10 22h10.18.473051 +0530,
113,0,113,0,235.69901737500004,,235.67680929200014,10,235.69901737500004,235.69901737500004,0.014978415999848949,238.55678987500005,[0.16666666666666666],[0.43166666666666664],[1],[0],[0],[2.8653493749998233],['target'],330532,001,2024-10-10_22h10.13.287,visual search task ,2024.1.5,None,2024-10-10 22h10.18.473051 +0530,
114,0,114,0,238.5813951670002,,238.55906291700012,10,238.5813951670002,238.5813951670002,0.015103708999959053,239.94881683400035,[0.31],[-0.12333333333333334],[1],[0],[0],[1.3750343749998137],['target'],330532,001,2024-10-10_22h10.13.287,visual search task ,2024.1.5,None,2024-10-10 22h10.18.473051 +0530,
115,0,115,0,239.96383074999994,,239.95099879200006,5,239.96383074999994,239.96383074999994,0.007834167000055459,241.18879662500012,[0.021666666666666667],[0.4266666666666667],[1],[0],[0],[1.2302760000002309],['target'],330532,001,2024-10-10_22h10.13.287,visual search task ,2024.1.5,None,2024-10-10 22h10.18.473051 +0530,
116,0,116,0,241.20434983400037,,241.19109312499995,5,241.20434983400037,241.20434983400037,0.007997665999937453,243.4553836670002,[0.20333333333333334],[0.36833333333333335],[1],[0],[0],[2.2566834590002145],['target'],330532,001,2024-10-10_22h10.13.287,visual search task ,2024.1.5,None,2024-10-10 22h10.18.473051 +0530,
117,0,117,0,243.47996329200032,,243.4575950000003,10,243.47996329200032,243.47996329200032,0.015030334000130097,244.973553584,[-0.22166666666666668],[0.36],[1],[0],[0],[1.5012799159999304],[],330532,001,2024-10-10_22h10.13.287,visual search task ,2024.1.5,None,2024-10-10 22h10.18.473051 +0530,
118,0,118,0,244.98906966699997,,244.97578220900004,5,244.98906966699997,244.98906966699997,0.008087832999990496,248.7988478340003,[0.32],[-0.38166666666666665],[1],[0],[0],[3.8152958750001744],['target'],330532,001,2024-10-10_22h10.13.287,visual search task ,2024.1.5,None,2024-10-10 22h10.18.473051 +0530,
119,0,119,0,248.81462841700022,,248.80118370900027,5,248.81462841700022,248.81462841700022,0.008105416000034893,251.49907683400033,[-0.38666666666666666],[0.185],[1],[0],[0],[2.69014370900004],['target'],330532,001,2024-10-10_22h10.13.287,visual search task ,2024.1.5,None,2024-10-10 22h10.18.473051 +0530,
120,0,120,0,251.52355962499996,,251.50139695899998,10,251.52355962499996,251.52355962499996,0.0148085410000931,252.87312954200024,[-0.16333333333333333],[0.19],[1],[0],[0],[1.357290416000069],['target'],330532,001,2024-10-10_22h10.13.287,visual search task ,2024.1.5,None,2024-10-10 22h10.18.473051 +0530,
121,0,121,0,252.8883282500001,,252.87532087499994,5,252.8883282500001,252.8883282500001,0.007955000000038126,254.39941520900038,[-0.051666666666666666],[0.37333333333333335],[1],[0],[0],[1.5164440419998755],['target'],330532,001,2024-10-10_22h10.13.287,visual search task ,2024.1.5,None,2024-10-10 22h10.18.473051 +0530,
122,0,122,0,254.41481125000018,,254.4016767500002,5,254.41481125000018,254.41481125000018,0.008014042000013433,257.2388285420002,[-0.17],[-0.21],[1],[0],[0],[2.829475999999886],['target'],330532,001,2024-10-10_22h10.13.287,visual search task ,2024.1.5,None,2024-10-10 22h10.18.473051 +0530,
123,0,123,0,257.2541120000001,,257.24113829199996,5,257.2541120000001,257.2541120000001,0.007935083999655035,259.1320987500003,[0.19666666666666666],[0.25],[1],[0],[0],[1.8833046250001644],['target'],330532,001,2024-10-10_22h10.13.287,visual search task ,2024.1.5,None,2024-10-10 22h10.18.473051 +0530,
124,0,124,0,259.1567295,,259.1343793340002,10,259.1567295,259.1567295,0.01519108300044536,261.0897065000004,[-0.12166666666666667],[-0.08333333333333333],[1],[0],[0],[1.9405140419999043],['target'],330532,001,2024-10-10_22h10.13.287,visual search task ,2024.1.5,None,2024-10-10 22h10.18.473051 +0530,
125,0,125,0,261.1141163340003,,261.0919105840003,10,261.1141163340003,261.1141163340003,0.014912083000126586,262.6064687920002,[0.13666666666666666],[0.405],[1],[0],[0],[1.4999567079998997],['target'],330532,001,2024-10-10_22h10.13.287,visual search task ,2024.1.5,None,2024-10-10 22h10.18.473051 +0530,
126,0,126,0,262.62171549999994,,262.608671209,5,262.62171549999994,262.62171549999994,0.008012457999939215,264.2821154590001,[-0.075],[-0.4033333333333333],[1],[0],[0],[1.6657685830000446],['target'],330532,001,2024-10-10_22h10.13.287,visual search task ,2024.1.5,None,2024-10-10 22h10.18.473051 +0530,
127,0,127,0,264.297663542,,264.2844245420001,5,264.297663542,264.297663542,0.00808104199995796,265.5720751670001,[0.12666666666666668],[0.04666666666666667],[1],[0],[0],[1.2799002909996489],['target'],330532,001,2024-10-10_22h10.13.287,visual search task ,2024.1.5,None,2024-10-10 22h10.18.473051 +0530,
128,0,128,0,265.59652779199996,,265.5743502090004,10,265.59652779199996,265.59652779199996,0.01487924999992174,268.8397436250002,[0.415],[-0.021666666666666667],[1],[0],[0],[3.250836917000015],['target'],330532,001,2024-10-10_22h10.13.287,visual search task ,2024.1.5,None,2024-10-10 22h10.18.473051 +0530,
129,0,129,0,268.8549357090001,,268.8419596670001,5,268.8549357090001,268.8549357090001,0.007917625000118278,270.63246075000006,[0.06333333333333334],[0.09166666666666666],[1],[0],[0],[1.7829395829999157],['target'],330532,001,2024-10-10_22h10.13.287,visual search task ,2024.1.5,None,2024-10-10 22h10.18.473051 +0530,
130,0,130,0,270.6563395000003,,270.6347443750001,10,270.6563395000003,270.6563395000003,0.01472737500034782,273.448212709,[0.4766666666666667],[0.355],[1],[0],[0],[2.799101624999821],['target'],330532,001,2024-10-10_22h10.13.287,visual search task ,2024.1.5,None,2024-10-10 22h10.18.473051 +0530,
131,0,131,0,273.47238291700023,,273.450382,10,273.47238291700023,273.47238291700023,0.014810790999945311,275.8231379590002,[-0.3516666666666667],[0.10333333333333333],[1],[0],[0],[2.3582866249998915],['target'],330532,001,2024-10-10_22h10.13.287,visual search task ,2024.1.5,None,2024-10-10 22h10.18.473051 +0530,
132,0,132,0,275.84723254200026,,275.8253144590003,10,275.84723254200026,275.84723254200026,0.014908833000390587,277.531616667,[0.075],[0.45],[1],[0],[0],[1.6916954589996749],['target'],330532,001,2024-10-10_22h10.13.287,visual search task ,2024.1.5,None,2024-10-10 22h10.18.473051 +0530,
133,0,133,0,277.55553612500034,,277.53377479200026,10,277.55553612500034,277.55553612500034,0.01469429200005834,279.03982191700015,[-0.13],[0.33666666666666667],[1],[0],[0],[1.4916767919999074],['target'],330532,001,2024-10-10_22h10.13.287,visual search task ,2024.1.5,None,2024-10-10 22h10.18.473051 +0530,
134,0,134,0,279.055310834,,279.04210337500035,5,279.055310834,279.055310834,0.00793741699999373,281.7993120420001,[0.051666666666666666],[-0.485],[1],[0],[0],[2.749607291000302],['target'],330532,001,2024-10-10_22h10.13.287,visual search task ,2024.1.5,None,2024-10-10 22h10.18.473051 +0530,
135,0,135,0,281.814669417,,281.80163470900015,5,281.814669417,281.814669417,0.008023832999697333,283.7325792920001,[0.19666666666666666],[-0.051666666666666666],[1],[0],[0],[1.9232527920003122],['target'],330532,001,2024-10-10_22h10.13.287,visual search task ,2024.1.5,None,2024-10-10 22h10.18.473051 +0530,
136,0,136,0,283.7573472920003,,283.73487483400004,10,283.7573472920003,283.7573472920003,0.01520387499977005,285.339812875,[0.056666666666666664],[0.18333333333333332],[1],[0],[0],[1.590060249999624],['target'],330532,001,2024-10-10_22h10.13.287,visual search task ,2024.1.5,None,2024-10-10 22h10.18.473051 +0530,
137,0,137,0,285.3636136670002,,285.34201662500027,10,285.3636136670002,285.3636136670002,0.014629874999627646,287.656470292,[-0.435],[0.24666666666666667],[1],[0],[0],[2.3001664999997047],['target'],330532,001,2024-10-10_22h10.13.287,visual search task ,2024.1.5,None,2024-10-10 22h10.18.473051 +0530,
138,0,138,0,287.6804111250003,,287.65866262500003,10,287.6804111250003,287.6804111250003,0.014752416999726847,289.0988137920003,[-0.4033333333333333],[0.38666666666666666],[1],[0],[0],[1.4257546249996267],['target'],330532,001,2024-10-10_22h10.13.287,visual search task ,2024.1.5,None,2024-10-10 22h10.18.473051 +0530,
139,0,139,0,289.11424616700015,,289.1010462920003,5,289.11424616700015,289.11424616700015,0.007895458999882976,290.17189729200027,[-0.3466666666666667],[0.41833333333333333],[1],[0],[0],[1.0633200830002352],['target'],330532,001,2024-10-10_22h10.13.287,visual search task ,2024.1.5,None,2024-10-10 22h10.18.473051 +0530,
140,0,140,0,290.1959031670003,,290.1741833750002,10,290.1959031670003,290.1959031670003,0.014734332999978506,292.18977895900025,[-0.2783333333333333],[0.38666666666666666],[1],[0],[0],[2.0011882500002685],['target'],330532,001,2024-10-10_22h10.13.287,visual search task ,2024.1.5,None,2024-10-10 22h10.18.473051 +0530,
141,0,141,0,292.21409658400034,,292.1919909590001,10,292.21409658400034,292.21409658400034,0.014790041000196652,294.04917079200004,[-0.45666666666666667],[-0.08333333333333333],[1],[0],[0],[1.8427395000003344],['target'],330532,001,2024-10-10_22h10.13.287,visual search task ,2024.1.5,None,2024-10-10 22h10.18.473051 +0530,
142,0,142,0,294.06410458400023,,294.05137837500024,5,294.06410458400023,294.06410458400023,0.007769708000068931,295.66541154200013,[0.325],[-0.0033333333333333335],[1],[0],[0],[1.6065989999997328],['target'],330532,001,2024-10-10_22h10.13.287,visual search task ,2024.1.5,None,2024-10-10 22h10.18.473051 +0530,
143,0,143,0,295.68065620900006,,295.66765137500033,5,295.68065620900006,295.68065620900006,0.007774749999953201,297.7652615420002,[-0.32],[0.46],[1],[0],[0],[2.0901577079998788],['target'],330532,001,2024-10-10_22h10.13.287,visual search task ,2024.1.5,None,2024-10-10 22h10.18.473051 +0530,
144,0,144,0,297.78947504200005,,297.76751241700003,10,297.78947504200005,297.78947504200005,0.014876249999815627,299.82323325000016,[-0.07],[-0.30333333333333334],[1],[0],[0],[2.041181250000136],['target'],330532,001,2024-10-10_22h10.13.287,visual search task ,2024.1.5,None,2024-10-10 22h10.18.473051 +0530,
145,0,145,0,299.8385225840002,,299.82544933400004,5,299.8385225840002,299.8385225840002,0.007917707999695267,301.1991078750002,[0.023333333333333334],[0.14833333333333334],[1],[0],[0],[1.366089500000271],['target'],330532,001,2024-10-10_22h10.13.287,visual search task ,2024.1.5,None,2024-10-10 22h10.18.473051 +0530,
146,0,146,0,301.21424266700024,,301.20135583399997,5,301.21424266700024,301.21424266700024,0.007887458999903174,302.9222815000003,[-0.11333333333333333],[0.23666666666666666],[1],[0],[0],[1.7133948749997217],['target'],330532,001,2024-10-10_22h10.13.287,visual search task ,2024.1.5,None,2024-10-10 22h10.18.473051 +0530,
147,0,147,0,302.9463902090001,,302.92458720900004,10,302.9463902090001,302.9463902090001,0.014823917000285292,305.0730705420001,[0.3566666666666667],[0.29333333333333333],[1],[0],[0],[2.134030832999997],['target'],330532,001,2024-10-10_22h10.13.287,visual search task ,2024.1.5,None,2024-10-10 22h10.18.473051 +0530,
148,0,148,0,305.09718620900003,,305.075340459,10,305.09718620900003,305.09718620900003,0.014614375000292057,310.106748875,[-0.25333333333333335],[0.4816666666666667],[1],[0],[0],[5.0171165000001565],['target'],330532,001,2024-10-10_22h10.13.287,visual search task ,2024.1.5,None,2024-10-10 22h10.18.473051 +0530,
149,0,149,0,310.1311605420001,,310.1089602920001,10,310.1311605420001,310.1311605420001,0.014858541999728914,312.96567808400005,[0.16833333333333333],[0.4033333333333333],[1],[0],[0],[2.8422116249998908],['target'],330532,001,2024-10-10_22h10.13.287,visual search task ,2024.1.5,None,2024-10-10 22h10.18.473051 +0530,
150,0,150,0,312.98090845900015,,312.967894417,5,312.98090845900015,312.98090845900015,0.008046458000080747,314.449277875,[-0.4266666666666667],[0.14166666666666666],[1],[0],[0],[1.4737009999998918],['target'],330532,001,2024-10-10_22h10.13.287,visual search task ,2024.1.5,None,2024-10-10 22h10.18.473051 +0530,
151,0,151,0,314.47350062500027,,314.45160083400015,10,314.47350062500027,314.47350062500027,0.014812207999966631,316.72315237500015,[0.43],[-0.45166666666666666],[1],[0],[0],[2.257075917000293],['target'],330532,001,2024-10-10_22h10.13.287,visual search task ,2024.1.5,None,2024-10-10 22h10.18.473051 +0530,
152,0,152,0,316.7475866670002,,316.7253624590003,10,316.7475866670002,316.7475866670002,0.014871500000026572,319.2738931250001,[-0.09666666666666666],[0.37166666666666665],[1],[0],[0],[2.5339938329998404],['target'],330532,001,2024-10-10_22h10.13.287,visual search task ,2024.1.5,None,2024-10-10 22h10.18.473051 +0530,
153,0,153,0,319.2988593750001,,319.27621666699997,10,319.2988593750001,319.2988593750001,0.015513915999690653,321.4483771250002,[-0.09333333333333334],[-0.35],[1],[0],[0],[2.156976165999822],['target'],330532,001,2024-10-10_22h10.13.287,visual search task ,2024.1.5,None,2024-10-10 22h10.18.473051 +0530,
154,0,154,0,321.47237333400017,,321.45060608400036,10,321.47237333400017,321.47237333400017,0.014630041000145866,323.1321102920001,[-0.3983333333333333],[0.14333333333333334],[1],[0],[0],[1.6672331659997326],['target'],330532,001,2024-10-10_22h10.13.287,visual search task ,2024.1.5,None,2024-10-10 22h10.18.473051 +0530,
155,0,155,0,323.14717658400014,,323.1342912500004,5,323.14717658400014,323.14717658400014,0.007743749999917782,324.5320166250003,[-0.49],[0.2866666666666667],[1],[0],[0],[1.3903155000002698],['target'],330532,001,2024-10-10_22h10.13.287,visual search task ,2024.1.5,None,2024-10-10 22h10.18.473051 +0530,
156,0,156,0,324.555913875,,324.5342335,10,324.555913875,324.555913875,0.014685457999803475,327.9897583750003,[0.37833333333333335],[-0.3383333333333333],[1],[0],[0],[3.441203250000399],['target'],330532,001,2024-10-10_22h10.13.287,visual search task ,2024.1.5,None,2024-10-10 22h10.18.473051 +0530,
157,0,157,0,328.01405862499996,,327.99199675,10,328.01405862499996,328.01405862499996,0.0150515830000586,329.61551720900025,[-0.365],[0.4583333333333333],[1],[0],[0],[1.6088390419999996],['target'],330532,001,2024-10-10_22h10.13.287,visual search task ,2024.1.5,None,2024-10-10 22h10.18.473051 +0530,
158,0,158,0,329.63043237500005,,329.61768158400037,5,329.63043237500005,329.63043237500005,0.007795917000294139,330.91590295900005,[-0.11666666666666667],[0.3616666666666667],[1],[0],[0],[1.2907583749997684],['target'],330532,001,2024-10-10_22h10.13.287,visual search task ,2024.1.5,None,2024-10-10 22h10.18.473051 +0530,
159,0,159,0,330.9309257920004,,330.91813600000023,5,330.9309257920004,330.9309257920004,0.007845500000257744,333.7819475000001,[0.008333333333333333],[0.48],[1],[0],[0],[2.8563122909999947],['target'],330532,001,2024-10-10_22h10.13.287,visual search task ,2024.1.5,None,2024-10-10 22h10.18.473051 +0530,
160,0,160,0,333.79723816700016,,333.784213292,5,333.79723816700016,333.79723816700016,0.007854832999782957,335.488697625,[0.3933333333333333],[-0.49666666666666665],[1],[0],[0],[1.6969600830002491],['target'],330532,001,2024-10-10_22h10.13.287,visual search task ,2024.1.5,None,2024-10-10 22h10.18.473051 +0530,
161,0,161,0,335.50392045900026,,335.490955667,5,335.50392045900026,335.50392045900026,0.007876957999997103,337.131908542,[0.085],[-0.4083333333333333],[1],[0],[0],[1.6334370829999898],['target'],330532,001,2024-10-10_22h10.13.287,visual search task ,2024.1.5,None,2024-10-10 22h10.18.473051 +0530,
162,0,162,0,337.1470615420003,,337.13422812499994,5,337.1470615420003,337.1470615420003,0.007842999999866151,339.33869066700026,[0.445],[-0.30666666666666664],[1],[0],[0],[2.1969527500000368],['target'],330532,001,2024-10-10_22h10.13.287,visual search task ,2024.1.5,None,2024-10-10 22h10.18.473051 +0530,
163,0,163,0,339.362800459,,339.340950542,10,339.362800459,339.362800459,0.014816166999935376,341.24874933399997,[-0.4583333333333333],[-0.48833333333333334],[1],[0],[0],[1.8933508330001132],['target'],330532,001,2024-10-10_22h10.13.287,visual search task ,2024.1.5,None,2024-10-10 22h10.18.473051 +0530,
164,0,164,0,341.26388625000027,,341.25093729200034,5,341.26388625000027,341.26388625000027,0.00788345900036802,343.22211745899995,[-0.12666666666666668],[0.465],[1],[0],[0],[1.9636168749998433],['target'],330532,001,2024-10-10_22h10.13.287,visual search task ,2024.1.5,None,2024-10-10 22h10.18.473051 +0530,
165,0,165,0,343.23792070900026,,343.22445341699995,5,343.23792070900026,343.23792070900026,0.008203958999729366,344.55534829199996,[-0.34833333333333333],[0.4033333333333333],[1],[0],[0],[1.3230235420001009],['target'],330532,001,2024-10-10_22h10.13.287,visual search task ,2024.1.5,None,2024-10-10 22h10.18.473051 +0530,
166,0,166,0,344.5794145,,344.5575919170001,10,344.5794145,344.5794145,0.014768499999718188,346.01487700000007,[0.09833333333333333],[0.19333333333333333],[1],[0],[0],[1.4428545420000773],['target'],330532,001,2024-10-10_22h10.13.287,visual search task ,2024.1.5,None,2024-10-10 22h10.18.473051 +0530,
167,0,167,0,346.0301235840002,,346.01715575000026,5,346.0301235840002,346.0301235840002,0.007870667000133835,347.6827786670001,[0.06833333333333333],[-0.36],[1],[0],[0],[1.6580961250001565],['target'],330532,001,2024-10-10_22h10.13.287,visual search task ,2024.1.5,None,2024-10-10 22h10.18.473051 +0530,
168,0,168,0,347.69799037500024,,347.6850260840001,5,347.69799037500024,347.69799037500024,0.007743749999917782,349.3325180420002,[-0.32666666666666666],[0.21],[1],[0],[0],[1.640120124999612],['target'],330532,001,2024-10-10_22h10.13.287,visual search task ,2024.1.5,None,2024-10-10 22h10.18.473051 +0530,
169,0,169,0,349.35674341699996,,349.33484754200026,10,349.35674341699996,349.35674341699996,0.014772209000057046,352.1232207920002,[0.3466666666666667],[-0.13],[1],[0],[0],[2.7739848329997585],['target'],330532,001,2024-10-10_22h10.13.287,visual search task ,2024.1.5,None,2024-10-10 22h10.18.473051 +0530,
170,0,170,0,352.138743084,,352.12549370900024,5,352.138743084,352.138743084,0.00790895799991631,354.032485875,[0.36666666666666664],[-0.41833333333333333],[1],[0],[0],[1.899447291999877],['target'],330532,001,2024-10-10_22h10.13.287,visual search task ,2024.1.5,None,2024-10-10 22h10.18.473051 +0530,
171,0,171,0,354.047961792,,354.03470425000023,5,354.047961792,354.047961792,0.007897625000168773,355.972261334,[-0.17166666666666666],[-0.255],[1],[0],[0],[1.929989833000036],['target'],330532,001,2024-10-10_22h10.13.287,visual search task ,2024.1.5,None,2024-10-10 22h10.18.473051 +0530,
172,0,172,0,355.98768429200027,,355.9745336250003,5,355.98768429200027,355.98768429200027,0.008027374999983294,357.87194879200024,[-0.345],[-0.475],[1],[0],[0],[1.8897187090001353],['target'],330532,001,2024-10-10_22h10.13.287,visual search task ,2024.1.5,None,2024-10-10 22h10.18.473051 +0530,
173,0,173,0,357.8872542500003,,357.8742271250003,5,357.8872542500003,357.8872542500003,0.00809958399986499,360.5554551250002,[0.3616666666666667],[0.105],[1],[0],[0],[2.6734894999999597],['target'],330532,001,2024-10-10_22h10.13.287,visual search task ,2024.1.5,None,2024-10-10 22h10.18.473051 +0530,
174,0,174,0,360.57962262499996,,360.5577335840003,10,360.57962262499996,360.57962262499996,0.014664166999864392,362.1400383340001,[-0.48833333333333334],[0.195],[1],[0],[0],[1.567966707999858],['target'],330532,001,2024-10-10_22h10.13.287,visual search task ,2024.1.5,None,2024-10-10 22h10.18.473051 +0530,
175,0,175,0,362.15537391700036,,362.1422567090003,5,362.15537391700036,362.15537391700036,0.007969792000039888,364.24915483400036,[0.21833333333333332],[0.23],[1],[0],[0],[2.0992833330001304],['target'],330532,001,2024-10-10_22h10.13.287,visual search task ,2024.1.5,None,2024-10-10 22h10.18.473051 +0530,
176,0,176,0,364.27330204200007,,364.2514529170003,10,364.27330204200007,364.27330204200007,0.014745999999831838,368.322845917,[0.065],[-0.37166666666666665],[1],[0],[0],[4.0570224580001195],['target'],330532,001,2024-10-10_22h10.13.287,visual search task ,2024.1.5,None,2024-10-10 22h10.18.473051 +0530,
177,0,177,0,368.3380325420003,,368.3250347500002,5,368.3380325420003,368.3380325420003,0.007916583000223909,370.18256720900035,[0.4766666666666667],[0.2633333333333333],[1],[0],[0],[1.8499707500000113],['target'],330532,001,2024-10-10_22h10.13.287,visual search task ,2024.1.5,None,2024-10-10 22h10.18.473051 +0530,
178,0,178,0,370.2068989590002,,370.18484854200005,10,370.2068989590002,370.2068989590002,0.01482791599983102,371.8568192920002,[0.40166666666666667],[0.06333333333333334],[1],[0],[0],[1.6575137499999073],['target'],330532,001,2024-10-10_22h10.13.287,visual search task ,2024.1.5,None,2024-10-10 22h10.18.473051 +0530,
179,0,179,0,371.88095875,,371.8590118340003,10,371.88095875,371.88095875,0.014857749999919179,373.8232647920004,[-0.23333333333333334],[0.08833333333333333],[1],[0],[0],[1.9497604159996627],['target'],330532,001,2024-10-10_22h10.13.287,visual search task ,2024.1.5,None,2024-10-10 22h10.18.473051 +0530,
180,0,180,0,373.83864633400026,,373.82550362500024,5,373.83864633400026,373.83864633400026,0.008149459000378556,375.43236754200007,[0.08666666666666667],[-0.245],[1],[0],[0],[1.5990822919998209],['target'],330532,001,2024-10-10_22h10.13.287,visual search task ,2024.1.5,None,2024-10-10 22h10.18.473051 +0530,
181,0,181,0,375.456573125,,375.43462045900014,10,375.456573125,375.456573125,0.014783208000153536,377.0230663750003,[0.11],[0.016666666666666666],[1],[0],[0],[1.5740523330000542],['target'],330532,001,2024-10-10_22h10.13.287,visual search task ,2024.1.5,None,2024-10-10 22h10.18.473051 +0530,
182,0,182,0,377.0469007920001,,377.0252749170004,10,377.0469007920001,377.0469007920001,0.01464620799970362,378.98222012500037,[0.15166666666666667],[0.06],[1],[0],[0],[1.9426642500002345],['target'],330532,001,2024-10-10_22h10.13.287,visual search task ,2024.1.5,None,2024-10-10 22h10.18.473051 +0530,
183,0,183,0,378.99752270900035,,378.984471792,5,378.99752270900035,378.99752270900035,0.007889541999702487,380.5825627920003,[0.445],[-0.11],[1],[0],[0],[1.5905318340001031],['target'],330532,001,2024-10-10_22h10.13.287,visual search task ,2024.1.5,None,2024-10-10 22h10.18.473051 +0530,
184,0,184,0,380.5974915840002,,380.58473904200036,5,380.5974915840002,380.5974915840002,0.0077335420000963495,382.1720754170001,[-0.33],[-0.245],[1],[0],[0],[1.5798969170000419],['target'],330532,001,2024-10-10_22h10.13.287,visual search task ,2024.1.5,None,2024-10-10 22h10.18.473051 +0530,
185,0,185,0,382.19781120900006,,382.1744429590003,10,382.19781120900006,382.19781120900006,0.016162874999736232,388.6400453750002,[-0.02],[-0.028333333333333332],[1],[0],[0],[6.4497593339997366],['target'],330532,001,2024-10-10_22h10.13.287,visual search task ,2024.1.5,None,2024-10-10 22h10.18.473051 +0530,
186,0,186,0,388.65537595900014,,388.6423237920003,5,388.65537595900014,388.65537595900014,0.007921666000129335,390.56582316699996,[0.22666666666666666],[-0.325],[1],[0],[0],[1.9159349579999798],['target'],330532,001,2024-10-10_22h10.13.287,visual search task ,2024.1.5,None,2024-10-10 22h10.18.473051 +0530,
187,0,187,0,390.5809507920003,,390.5680713750003,5,390.5809507920003,390.5809507920003,0.007950540999900113,392.048575584,[0.26],[-0.05333333333333334],[1],[0],[0],[1.4728826669997943],['target'],330532,001,2024-10-10_22h10.13.287,visual search task ,2024.1.5,None,2024-10-10 22h10.18.473051 +0530,
188,0,188,0,392.0637508340001,,392.0508587090003,5,392.0637508340001,392.0637508340001,0.007910958999673312,393.89913700000034,[0.12833333333333333],[0.405],[1],[0],[0],[1.840742500000033],['target'],330532,001,2024-10-10_22h10.13.287,visual search task ,2024.1.5,None,2024-10-10 22h10.18.473051 +0530,
189,0,189,0,393.92376087499997,,393.901451792,10,393.92376087499997,393.92376087499997,0.015017290999821853,395.7230353340001,[-0.465],[-0.2],[1],[0],[0],[1.8069303749998653],['target'],330532,001,2024-10-10_22h10.13.287,visual search task ,2024.1.5,None,2024-10-10 22h10.18.473051 +0530,
190,0,190,0,395.7383221250002,,395.72526912500007,5,395.7383221250002,395.7383221250002,0.007902000000285625,398.43900870900006,[0.2833333333333333],[-0.355],[1],[0],[0],[2.7061238749997756],['target'],330532,001,2024-10-10_22h10.13.287,visual search task ,2024.1.5,None,2024-10-10 22h10.18.473051 +0530,
191,0,191,0,398.46306470900026,,398.4412990840001,10,398.46306470900026,398.46306470900026,0.014762124999833759,400.6982890000004,[-0.25333333333333335],[0.44],[1],[0],[0],[2.24259391600026],['target'],330532,001,2024-10-10_22h10.13.287,visual search task ,2024.1.5,None,2024-10-10 22h10.18.473051 +0530,
192,0,192,0,400.71380791699994,,400.70050400000036,5,400.71380791699994,400.71380791699994,0.00794716599966705,402.19902820900006,[0.39],[0.425],[1],[0],[0],[1.490908791000038],['target'],330532,001,2024-10-10_22h10.13.287,visual search task ,2024.1.5,None,2024-10-10 22h10.18.473051 +0530,
193,0,193,0,402.2142650840001,,402.20127762500033,5,402.2142650840001,402.2142650840001,0.00790279200009536,404.1485931250004,[0.21333333333333335],[-0.28833333333333333],[1],[0],[0],[1.9397562499998457],['target'],330532,001,2024-10-10_22h10.13.287,visual search task ,2024.1.5,None,2024-10-10 22h10.18.473051 +0530,
194,0,194,0,404.1731180840002,,404.150930667,10,404.1731180840002,404.1731180840002,0.015246291000039491,405.60635366700035,[0.31333333333333335],[-0.045],[1],[0],[0],[1.440528292000181],['target'],330532,001,2024-10-10_22h10.13.287,visual search task ,2024.1.5,None,2024-10-10 22h10.18.473051 +0530,
195,0,195,0,405.630379792,,405.6085271670004,10,405.630379792,405.630379792,0.014832290999947872,407.2566348340001,[-0.31333333333333335],[-0.24333333333333335],[1],[0],[0],[1.6335762909998266],['target'],330532,001,2024-10-10_22h10.13.287,visual search task ,2024.1.5,None,2024-10-10 22h10.18.473051 +0530,
196,0,196,0,407.28067875000033,,407.25884891700025,10,407.28067875000033,407.28067875000033,0.014750124999864056,409.25695387500036,[-0.3383333333333333],[-0.065],[1],[0],[0],[1.9836940840000352],['target'],330532,001,2024-10-10_22h10.13.287,visual search task ,2024.1.5,None,2024-10-10 22h10.18.473051 +0530,
197,0,197,0,409.2813553750002,,409.2592303340002,10,409.2813553750002,409.2813553750002,0.014881375000186381,410.95672887499995,[0.35833333333333334],[-0.24666666666666667],[1],[0],[0],[1.6829645829998299],['target'],330532,001,2024-10-10_22h10.13.287,visual search task ,2024.1.5,None,2024-10-10 22h10.18.473051 +0530,
198,0,198,0,410.9806355420001,,410.95893216700006,10,410.9806355420001,410.9806355420001,0.014720333000241226,413.1658097090003,[-0.32166666666666666],[-0.03166666666666667],[1],[0],[0],[2.1925186670000585],['target'],330532,001,2024-10-10_22h10.13.287,visual search task ,2024.1.5,None,2024-10-10 22h10.18.473051 +0530,
199,0,199,0,413.1811105840002,,413.1680475420003,5,413.1811105840002,413.1811105840002,0.007968749999690772,414.8891496250003,[0.11833333333333333],[-0.35833333333333334],[1],[0],[0],[1.7134216670001479],['target'],330532,001,2024-10-10_22h10.13.287,visual search task ,2024.1.5,None,2024-10-10 22h10.18.473051 +0530,
