trials.thisRepN,trials.thisTrialN,trials.thisN,trials.thisIndex,thisRow.t,notes,trial.started,num_distr,fixation.started,target.started,mouse.started,trial.stopped,mouse.x,mouse.y,mouse.leftButton,mouse.midButton,mouse.rightButton,mouse.time,mouse.clicked_name,participant,session,date,expName,psychopyVersion,frameRate,expStart,
0,0,0,0,0.04616004099989368,,0.020183874999929685,10,0.04616004099989368,0.04616004099989368,0.035591333000411396,1.983679165999547,[0.09666666666666666],[-0.29333333333333333],[1],[0],[0],[1.9476713330000166],['target'],505680,001,2024-10-10_22h20.31.848,visual search task ,2024.1.5,None,2024-10-10 22h20.37.669562 +0530,
1,0,1,0,1.9992960829999902,,1.9864527909999197,5,1.9992960829999902,1.9992960829999902,0.008045792000302754,3.7306689159995585,[-0.405],[-0.4683333333333333],[1],[0],[0],[1.7364692500000274],['target'],505680,001,2024-10-10_22h20.31.848,visual search task ,2024.1.5,None,2024-10-10 22h20.37.669562 +0530,
2,0,2,0,3.7548479159995622,,3.7329546249998202,10,3.7548479159995622,3.7548479159995622,0.014981917000113754,5.0228649159998895,[0.225],[0.025],[1],[0],[0],[1.2752847090000614],['target'],505680,001,2024-10-10_22h20.31.848,visual search task ,2024.1.5,None,2024-10-10 22h20.37.669562 +0530,
3,0,3,0,5.046842290999848,,5.02509074999989,10,5.046842290999848,5.046842290999848,0.014649124999777996,6.472966207999889,[0.415],[0.2783333333333333],[1],[0],[0],[1.4335714589997224],['target'],505680,001,2024-10-10_22h20.31.848,visual search task ,2024.1.5,None,2024-10-10 22h20.37.669562 +0530,
4,0,4,0,6.487623624999742,,6.475182207999751,5,6.487623624999742,6.487623624999742,0.0077108750001571025,8.106548249999832,[-0.49],[0.09666666666666666],[1],[0],[0],[1.6239784580002379],['target'],505680,001,2024-10-10_22h20.31.848,visual search task ,2024.1.5,None,2024-10-10 22h20.37.669562 +0530,
5,0,5,0,8.121868624999934,,8.108909457999744,5,8.121868624999934,8.121868624999934,0.00811095800008843,9.590470582999842,[-0.42],[-0.205],[1],[0],[0],[1.4738732079999863],['target'],505680,001,2024-10-10_22h20.31.848,visual search task ,2024.1.5,None,2024-10-10 22h20.37.669562 +0530,
6,0,6,0,9.605646624999736,,9.592788624999685,5,9.605646624999736,9.605646624999736,0.008096833000308834,11.147376874999736,[-0.14],[0.01],[1],[0],[0],[1.5468875420001496],['target'],505680,001,2024-10-10_22h20.31.848,visual search task ,2024.1.5,None,2024-10-10 22h20.37.669562 +0530,
7,0,7,0,11.171829999999773,,11.149732665999636,10,11.171829999999773,11.171829999999773,0.015208540999992692,12.40627133299995,[-0.025],[0.3883333333333333],[1],[0],[0],[1.2416800420000982],['target'],505680,001,2024-10-10_22h20.31.848,visual search task ,2024.1.5,None,2024-10-10 22h20.37.669562 +0530,
8,0,8,0,12.421336124999925,,12.408446790999733,5,12.421336124999925,12.421336124999925,0.007760292000057234,14.040096874999563,[-0.47833333333333333],[-0.025],[1],[0],[0],[1.6242191659998753],['target'],505680,001,2024-10-10_22h20.31.848,visual search task ,2024.1.5,None,2024-10-10 22h20.37.669562 +0530,
9,0,9,0,14.06414599999971,,14.042442999999821,10,14.06414599999971,14.06414599999971,0.015016500000001543,16.214356874999794,[0.44],[-0.285],[1],[0],[0],[2.1572134580001148],['target'],505680,001,2024-10-10_22h20.31.848,visual search task ,2024.1.5,None,2024-10-10 22h20.37.669562 +0530,
10,0,10,0,16.238433290999637,,16.216555374999643,10,16.238433290999637,16.238433290999637,0.014842625000255794,17.61413329099969,[0.10666666666666667],[-0.14833333333333334],[1],[0],[0],[1.383107082999686],['target'],505680,001,2024-10-10_22h20.31.848,visual search task ,2024.1.5,None,2024-10-10 22h20.37.669562 +0530,
11,0,11,0,17.628966124999806,,17.616390249999768,5,17.628966124999806,17.628966124999806,0.00784783300014169,18.913448707999578,[0.43166666666666664],[-0.205],[1],[0],[0],[1.2895514169999842],['target'],505680,001,2024-10-10_22h20.31.848,visual search task ,2024.1.5,None,2024-10-10 22h20.37.669562 +0530,
12,0,12,0,18.928694040999744,,18.91572633299984,5,18.928694040999744,18.928694040999744,0.008086709000053816,20.363298499999928,[-0.008333333333333333],[-0.13666666666666666],[1],[0],[0],[1.439849583999603],['target'],505680,001,2024-10-10_22h20.31.848,visual search task ,2024.1.5,None,2024-10-10 22h20.37.669562 +0530,
13,0,13,0,20.378957457999604,,20.365608082999643,5,20.378957457999604,20.378957457999604,0.008242875000178174,21.59036308299983,[0.43833333333333335],[-0.0033333333333333335],[1],[0],[0],[1.2168437919999633],['target'],505680,001,2024-10-10_22h20.31.848,visual search task ,2024.1.5,None,2024-10-10 22h20.37.669562 +0530,
14,0,14,0,21.605809332999797,,21.59270833299979,5,21.605809332999797,21.605809332999797,0.008104583000204002,22.96363358299959,[0.3283333333333333],[0.18333333333333332],[1],[0],[0],[1.3631583750002392],['target'],505680,001,2024-10-10_22h20.31.848,visual search task ,2024.1.5,None,2024-10-10 22h20.37.669562 +0530,
15,0,15,0,22.97903983299966,,22.96600062499965,5,22.97903983299966,22.97903983299966,0.00817437500018059,24.790419665999707,[0.25333333333333335],[0.07],[1],[0],[0],[1.8166158330000144],['target'],505680,001,2024-10-10_22h20.31.848,visual search task ,2024.1.5,None,2024-10-10 22h20.37.669562 +0530,
16,0,16,0,24.80566537499999,,24.792729832999612,5,24.80566537499999,24.80566537499999,0.008117708999634488,26.306611915999838,[-0.25666666666666665],[0.475],[1],[0],[0],[1.5060932080000384],['target'],505680,001,2024-10-10_22h20.31.848,visual search task ,2024.1.5,None,2024-10-10 22h20.37.669562 +0530,
17,0,17,0,26.322202457999992,,26.308993457999804,5,26.322202457999992,26.322202457999992,0.008303541999794106,27.74676187499972,[0.20333333333333334],[-0.008333333333333333],[1],[0],[0],[1.4298696659998313],['target'],505680,001,2024-10-10_22h20.31.848,visual search task ,2024.1.5,None,2024-10-10 22h20.37.669562 +0530,
18,0,18,0,27.770883457999844,,27.74904749999996,10,27.770883457999844,27.770883457999844,0.015102916000159894,29.17278424999995,[0.065],[0.21666666666666667],[1],[0],[0],[1.4090064580000217],['target'],505680,001,2024-10-10_22h20.31.848,visual search task ,2024.1.5,None,2024-10-10 22h20.37.669562 +0530,
19,0,19,0,29.18752287499956,,29.17499270799999,5,29.18752287499956,29.18752287499956,0.007751459000246541,30.4401372909997,[0.2633333333333333],[-0.15],[1],[0],[0],[1.2577342500003397],['target'],505680,001,2024-10-10_22h20.31.848,visual search task ,2024.1.5,None,2024-10-10 22h20.37.669562 +0530,
20,0,20,0,30.464642540999648,,30.442503332999877,10,30.464642540999648,30.464642540999648,0.015022582999790757,32.89760654099973,[-0.12166666666666667],[0.04833333333333333],[1],[0],[0],[2.440476750000016],['target'],505680,001,2024-10-10_22h20.31.848,visual search task ,2024.1.5,None,2024-10-10 22h20.37.669562 +0530,
21,0,21,0,32.921713457999886,,32.89982916599956,10,32.921713457999886,32.921713457999886,0.01480791699987094,35.46435437499986,[0.32666666666666666],[-0.385],[1],[0],[0],[2.5500967910002146],['target'],505680,001,2024-10-10_22h20.31.848,visual search task ,2024.1.5,None,2024-10-10 22h20.37.669562 +0530,
22,0,22,0,35.48845874999961,,35.46658787499973,10,35.48845874999961,35.48845874999961,0.015011708999736584,38.88113533299975,[-0.3333333333333333],[0.2],[1],[0],[0],[3.3998809160002565],['target'],505680,001,2024-10-10_22h20.31.848,visual search task ,2024.1.5,None,2024-10-10 22h20.37.669562 +0530,
23,0,23,0,38.90510662499992,,38.88333924999961,10,38.90510662499992,38.90510662499992,0.014947708000363491,41.00698158299974,[0.016666666666666666],[0.02],[1],[0],[0],[2.1090474160000667],['target'],505680,001,2024-10-10_22h20.31.848,visual search task ,2024.1.5,None,2024-10-10 22h20.37.669562 +0530,
24,0,24,0,41.02168533299982,,41.00916133299961,5,41.02168533299982,41.02168533299982,0.0076730410000891425,43.05707412499987,[0.21166666666666667],[0.28833333333333333],[1],[0],[0],[2.040578249999726],['target'],505680,001,2024-10-10_22h20.31.848,visual search task ,2024.1.5,None,2024-10-10 22h20.37.669562 +0530,
25,0,25,0,43.07231779099993,,43.05940062499985,5,43.07231779099993,43.07231779099993,0.008133625000027678,45.496694790999754,[0.4633333333333333],[-0.4216666666666667],[1],[0],[0],[2.4295392079998237],['target'],505680,001,2024-10-10_22h20.31.848,visual search task ,2024.1.5,None,2024-10-10 22h20.37.669562 +0530,
26,0,26,0,45.51204116599956,,45.499007207999966,5,45.51204116599956,45.51204116599956,0.008125374999963242,47.196650040999884,[0.4266666666666667],[-0.235],[1],[0],[0],[1.6898623749998478],['target'],505680,001,2024-10-10_22h20.31.848,visual search task ,2024.1.5,None,2024-10-10 22h20.37.669562 +0530,
27,0,27,0,47.21221324999988,,47.198977790999834,5,47.21221324999988,47.21221324999988,0.008207083999877796,48.8464738749999,[-0.3616666666666667],[0.185],[1],[0],[0],[1.6396472080000422],['target'],505680,001,2024-10-10_22h20.31.848,visual search task ,2024.1.5,None,2024-10-10 22h20.37.669562 +0530,
28,0,28,0,48.86193566599968,,48.848864624999806,5,48.86193566599968,48.86193566599968,0.008110082999792212,50.306737832999715,[-0.07],[0.025],[1],[0],[0],[1.4501700830001027],['target'],505680,001,2024-10-10_22h20.31.848,visual search task ,2024.1.5,None,2024-10-10 22h20.37.669562 +0530,
29,0,29,0,50.33098237499962,,50.3090791249997,10,50.33098237499962,50.33098237499962,0.01494712499970774,52.29000145799955,[0.49],[-0.25],[1],[0],[0],[1.966328459000124],['target'],505680,001,2024-10-10_22h20.31.848,visual search task ,2024.1.5,None,2024-10-10 22h20.37.669562 +0530,
30,0,30,0,52.31449341599955,,52.29221170799974,10,52.31449341599955,52.31449341599955,0.015136583000185055,54.26440058299977,[0.023333333333333334],[0.43333333333333335],[1],[0],[0],[1.957357457999933],['target'],505680,001,2024-10-10_22h20.31.848,visual search task ,2024.1.5,None,2024-10-10 22h20.37.669562 +0530,
31,0,31,0,54.28874374999987,,54.26659295799982,10,54.28874374999987,54.28874374999987,0.015057542000249668,55.88966599999958,[0.21666666666666667],[-0.14666666666666667],[1],[0],[0],[1.6083307500002775],['target'],505680,001,2024-10-10_22h20.31.848,visual search task ,2024.1.5,None,2024-10-10 22h20.37.669562 +0530,
32,0,32,0,55.914032874999975,,55.89188104099958,10,55.914032874999975,55.914032874999975,0.014774042000226473,58.27301199999965,[-0.3383333333333333],[-0.30666666666666664],[1],[0],[0],[2.3667298749996917],['target'],505680,001,2024-10-10_22h20.31.848,visual search task ,2024.1.5,None,2024-10-10 22h20.37.669562 +0530,
33,0,33,0,58.29754033299969,,58.275183707999986,10,58.29754033299969,58.29754033299969,0.014862250000078348,59.83117691599955,[0.16833333333333333],[0.08],[1],[0],[0],[1.5414658750000854],['target'],505680,001,2024-10-10_22h20.31.848,visual search task ,2024.1.5,None,2024-10-10 22h20.37.669562 +0530,
34,0,34,0,59.85505224999997,,59.83338712499972,10,59.85505224999997,59.85505224999997,0.014819582999734848,61.99836658299955,[-0.47],[0.24833333333333332],[1],[0],[0],[2.150437916000101],['target'],505680,001,2024-10-10_22h20.31.848,visual search task ,2024.1.5,None,2024-10-10 22h20.37.669562 +0530,
35,0,35,0,62.013704957999835,,62.00061399999959,5,62.013704957999835,62.013704957999835,0.00809954199985441,63.89685979099977,[-0.15],[-0.09833333333333333],[1],[0],[0],[1.8884764159997758],['target'],505680,001,2024-10-10_22h20.31.848,visual search task ,2024.1.5,None,2024-10-10 22h20.37.669562 +0530,
36,0,36,0,63.91214808299992,,63.89918958299995,5,63.91214808299992,63.91214808299992,0.008124667000174668,67.14672116599968,[0.22833333333333333],[-0.25166666666666665],[1],[0],[0],[3.2397354580002684],['target'],505680,001,2024-10-10_22h20.31.848,visual search task ,2024.1.5,None,2024-10-10 22h20.37.669562 +0530,
37,0,37,0,67.16221308299964,,67.1490746659997,5,67.16221308299964,67.16221308299964,0.008179124999969645,69.30679908299999,[0.07166666666666667],[0.20833333333333334],[1],[0],[0],[2.1498742080002557],['target'],505680,001,2024-10-10_22h20.31.848,visual search task ,2024.1.5,None,2024-10-10 22h20.37.669562 +0530,
38,0,38,0,69.32226537499992,,69.30917587499971,5,69.32226537499992,69.32226537499992,0.00803387499991004,70.59042195799975,[0.285],[-0.06666666666666667],[1],[0],[0],[1.2735849999999118],['target'],505680,001,2024-10-10_22h20.31.848,visual search task ,2024.1.5,None,2024-10-10 22h20.37.669562 +0530,
39,0,39,0,70.60557449999988,,70.59276829099963,5,70.60557449999988,70.60557449999988,0.008059750000029453,72.32404058299971,[-0.36833333333333335],[0.29833333333333334],[1],[0],[0],[1.7235839170002691],['target'],505680,001,2024-10-10_22h20.31.848,visual search task ,2024.1.5,None,2024-10-10 22h20.37.669562 +0530,
40,0,40,0,72.34826362499962,,72.32632087499996,10,72.34826362499962,72.34826362499962,0.014837291999810986,74.00700120799956,[0.4083333333333333],[0.44166666666666665],[1],[0],[0],[1.666283416999704],['target'],505680,001,2024-10-10_22h20.31.848,visual search task ,2024.1.5,None,2024-10-10 22h20.37.669562 +0530,
41,0,41,0,74.02202179099959,,74.00919154099984,5,74.02202179099959,74.02202179099959,0.00796216699973229,75.49661745799995,[-0.37666666666666665],[0.41833333333333333],[1],[0],[0],[1.4797592500003702],['target'],505680,001,2024-10-10_22h20.31.848,visual search task ,2024.1.5,None,2024-10-10 22h20.37.669562 +0530,
42,0,42,0,75.51192624999976,,75.49891304099992,5,75.51192624999976,75.51192624999976,0.008072084000104951,76.74005999999963,[0.275],[0.35833333333333334],[1],[0],[0],[1.2334147500000654],['target'],505680,001,2024-10-10_22h20.31.848,visual search task ,2024.1.5,None,2024-10-10 22h20.37.669562 +0530,
43,0,43,0,76.75571083299974,,76.74234812499981,5,76.75571083299974,76.75571083299974,0.008237917000315065,78.18995495799982,[0.4083333333333333],[0.4083333333333333],[1],[0],[0],[1.4397112920000836],['target'],505680,001,2024-10-10_22h20.31.848,visual search task ,2024.1.5,None,2024-10-10 22h20.37.669562 +0530,
44,0,44,0,78.21440229099971,,78.19226245799973,10,78.21440229099971,78.21440229099971,0.014995874999840453,80.347805333,[-0.30333333333333334],[-0.24166666666666667],[1],[0],[0],[2.1408769170002415],['target'],505680,001,2024-10-10_22h20.31.848,visual search task ,2024.1.5,None,2024-10-10 22h20.37.669562 +0530,
45,0,45,0,80.36296024999956,,80.35002487499969,5,80.36296024999956,80.36296024999956,0.007947957999931532,81.88026441599959,[0.40166666666666667],[-0.305],[1],[0],[0],[1.5226159170001665],['target'],505680,001,2024-10-10_22h20.31.848,visual search task ,2024.1.5,None,2024-10-10 22h20.37.669562 +0530,
46,0,46,0,81.90483499999982,,81.88257291599984,10,81.90483499999982,81.90483499999982,0.015180207999947015,83.45637179099958,[0.035],[-0.38166666666666665],[1],[0],[0],[1.558937541999967],['target'],505680,001,2024-10-10_22h20.31.848,visual search task ,2024.1.5,None,2024-10-10 22h20.37.669562 +0530,
47,0,47,0,83.48054433299967,,83.45852937499967,10,83.48054433299967,83.48054433299967,0.014894249999997555,84.78112799999963,[0.3283333333333333],[-0.38333333333333336],[1],[0],[0],[1.3079876250003508],['target'],505680,001,2024-10-10_22h20.31.848,visual search task ,2024.1.5,None,2024-10-10 22h20.37.669562 +0530,
48,0,48,0,84.79606654099962,,84.7833137499997,5,84.79606654099962,84.79606654099962,0.007895249999819498,86.14056812499985,[0.35],[0.02666666666666667],[1],[0],[0],[1.3497006249999686],['target'],505680,001,2024-10-10_22h20.31.848,visual search task ,2024.1.5,None,2024-10-10 22h20.37.669562 +0530,
49,0,49,0,86.16515691599989,,86.14284870799975,10,86.16515691599989,86.16515691599989,0.015047583000068698,88.24776908299964,[-0.3566666666666667],[-0.105],[1],[0],[0],[2.0902458749997095],['target'],505680,001,2024-10-10_22h20.31.848,visual search task ,2024.1.5,None,2024-10-10 22h20.37.669562 +0530,
50,0,50,0,88.26274599999988,,88.24999799999978,5,88.26274599999988,88.26274599999988,0.007913874999758264,89.46354983299989,[-0.3566666666666667],[0.04833333333333333],[1],[0],[0],[1.20595533300002],['target'],505680,001,2024-10-10_22h20.31.848,visual search task ,2024.1.5,None,2024-10-10 22h20.37.669562 +0530,
51,0,51,0,89.47926737499984,,89.46593574999997,5,89.47926737499984,89.47926737499984,0.008180875000107335,91.27384145799988,[0.016666666666666666],[-0.23833333333333334],[1],[0],[0],[1.8001353750000817],['target'],505680,001,2024-10-10_22h20.31.848,visual search task ,2024.1.5,None,2024-10-10 22h20.37.669562 +0530,
52,0,52,0,91.29788949999966,,91.27616470799967,10,91.29788949999966,91.29788949999966,0.014872666999963258,92.54803837499958,[0.32],[0.175],[1],[0],[0],[1.257373916999768],['target'],505680,001,2024-10-10_22h20.31.848,visual search task ,2024.1.5,None,2024-10-10 22h20.37.669562 +0530,
53,0,53,0,92.56342795799992,,92.55024562499966,5,92.56342795799992,92.56342795799992,0.008215415999984543,93.99071024999967,[-0.385],[0.14666666666666667],[1],[0],[0],[1.4325979579998602],['target'],505680,001,2024-10-10_22h20.31.848,visual search task ,2024.1.5,None,2024-10-10 22h20.37.669562 +0530,
54,0,54,0,94.00582962499993,,93.99303812499966,5,94.00582962499993,94.00582962499993,0.007966874999965512,95.17390366599966,[-0.4216666666666667],[0.16666666666666666],[1],[0],[0],[1.1732717919999232],['target'],505680,001,2024-10-10_22h20.31.848,visual search task ,2024.1.5,None,2024-10-10 22h20.37.669562 +0530,
55,0,55,0,95.18905799999993,,95.1762179579996,5,95.18905799999993,95.18905799999993,0.008014374999675056,97.1298811659999,[0.25],[-0.13166666666666665],[1],[0],[0],[1.946034458000213],['target'],505680,001,2024-10-10_22h20.31.848,visual search task ,2024.1.5,None,2024-10-10 22h20.37.669562 +0530,
56,0,56,0,97.14507799999956,,97.13218870799983,5,97.14507799999956,97.14507799999956,0.008041500000217638,98.64651370799993,[0.4083333333333333],[-0.265],[1],[0],[0],[1.5065523330003998],['target'],505680,001,2024-10-10_22h20.31.848,visual search task ,2024.1.5,None,2024-10-10 22h20.37.669562 +0530,
57,0,57,0,98.67094220799981,,98.6487898749997,10,98.67094220799981,98.67094220799981,0.015020667000044341,99.81439695799963,[0.425],[-0.10166666666666667],[1],[0],[0],[1.150992166999913],['target'],505680,001,2024-10-10_22h20.31.848,visual search task ,2024.1.5,None,2024-10-10 22h20.37.669562 +0530,
58,0,58,0,99.82956216599996,,99.81661829099994,5,99.82956216599996,99.82956216599996,0.007955708999816125,101.24002716599989,[0.04833333333333333],[0.2916666666666667],[1],[0],[0],[1.4157719169998018],['target'],505680,001,2024-10-10_22h20.31.848,visual search task ,2024.1.5,None,2024-10-10 22h20.37.669562 +0530,
59,0,59,0,101.25527162499975,,101.24232404099985,5,101.25527162499975,101.25527162499975,0.007944541000142635,103.37334899999996,[0.19666666666666666],[-0.31666666666666665],[1],[0],[0],[2.123427250000077],['target'],505680,001,2024-10-10_22h20.31.848,visual search task ,2024.1.5,None,2024-10-10 22h20.37.669562 +0530,
60,0,60,0,103.38875549999966,,103.37558199999967,5,103.38875549999966,103.38875549999966,0.007972542000061367,104.68002162499988,[0.3283333333333333],[0.06666666666666667],[1],[0],[0],[1.296825416000047],['target'],505680,001,2024-10-10_22h20.31.848,visual search task ,2024.1.5,None,2024-10-10 22h20.37.669562 +0530,
61,0,61,0,104.69532066599959,,104.68230995799968,5,104.69532066599959,104.69532066599959,0.008052124999721855,107.00760433299956,[0.3016666666666667],[-0.4816666666666667],[1],[0],[0],[2.317623791999722],['target'],505680,001,2024-10-10_22h20.31.848,visual search task ,2024.1.5,None,2024-10-10 22h20.37.669562 +0530,
62,0,62,0,107.02305583299994,,107.00992837499962,5,107.02305583299994,107.02305583299994,0.008060749999913241,109.306727916,[0.2916666666666667],[0.32666666666666666],[1],[0],[0],[2.289060540999799],['target'],505680,001,2024-10-10_22h20.31.848,visual search task ,2024.1.5,None,2024-10-10 22h20.37.669562 +0530,
63,0,63,0,109.33101554099994,,109.30902829099978,10,109.33101554099994,109.33101554099994,0.014963542000259622,111.01640954099958,[0.018333333333333333],[0.3983333333333333],[1],[0],[0],[1.6926738329998443],['target'],505680,001,2024-10-10_22h20.31.848,visual search task ,2024.1.5,None,2024-10-10 22h20.37.669562 +0530,
64,0,64,0,111.03280416599955,,111.01883816599957,5,111.03280416599955,111.03280416599955,0.00869245800004137,113.20710308299977,[0.255],[-0.19],[1],[0],[0],[2.179985708000004],['target'],505680,001,2024-10-10_22h20.31.848,visual search task ,2024.1.5,None,2024-10-10 22h20.37.669562 +0530,
65,0,65,0,113.22228216599979,,113.2093646659996,5,113.22228216599979,113.22228216599979,0.007971125000040047,114.81368658299971,[0.185],[0.47833333333333333],[1],[0],[0],[1.5967257910001535],['target'],505680,001,2024-10-10_22h20.31.848,visual search task ,2024.1.5,None,2024-10-10 22h20.37.669562 +0530,
66,0,66,0,114.82900087499956,,114.81600733299956,5,114.82900087499956,114.82900087499956,0.007957667000027868,118.2134797499998,[-0.44166666666666665],[-0.25166666666666665],[1],[0],[0],[3.389902333000009],['target'],505680,001,2024-10-10_22h20.31.848,visual search task ,2024.1.5,None,2024-10-10 22h20.37.669562 +0530,
67,0,67,0,118.22889020799994,,118.21579633299962,5,118.22889020799994,118.22889020799994,0.008071875000041473,121.0404000829999,[-0.4766666666666667],[0.115],[1],[0],[0],[2.8169226250001884],['target'],505680,001,2024-10-10_22h20.31.848,visual search task ,2024.1.5,None,2024-10-10 22h20.37.669562 +0530,
68,0,68,0,121.06513370799985,,121.04271495799958,10,121.06513370799985,121.06513370799985,0.015178999999989173,125.22303029099976,[0.42],[-0.2833333333333333],[1],[0],[0],[4.16546712499985],['target'],505680,001,2024-10-10_22h20.31.848,visual search task ,2024.1.5,None,2024-10-10 22h20.37.669562 +0530,
69,0,69,0,125.23815312499983,,125.22535454099989,5,125.23815312499983,125.23815312499983,0.007913625000128377,126.55726666599958,[0.24],[-0.095],[1],[0],[0],[1.324419707999823],['target'],505680,001,2024-10-10_22h20.31.848,visual search task ,2024.1.5,None,2024-10-10 22h20.37.669562 +0530,
70,0,70,0,126.57235574999959,,126.55960383299998,5,126.57235574999959,126.57235574999959,0.007946541999899637,128.4968531659997,[-0.43833333333333335],[-0.04666666666666667],[1],[0],[0],[1.929667666000114],['target'],505680,001,2024-10-10_22h20.31.848,visual search task ,2024.1.5,None,2024-10-10 22h20.37.669562 +0530,
71,0,71,0,128.51211449999983,,128.4992079159997,5,128.51211449999983,128.51211449999983,0.008057417000145506,131.12373608299959,[-0.29],[0.47],[1],[0],[0],[2.616864500000247],['target'],505680,001,2024-10-10_22h20.31.848,visual search task ,2024.1.5,None,2024-10-10 22h20.37.669562 +0530,
72,0,72,0,131.14818879099994,,131.1260727079998,10,131.14818879099994,131.14818879099994,0.014919834000011178,135.0562958749997,[0.235],[0.41],[1],[0],[0],[3.9156696669997473],['target'],505680,001,2024-10-10_22h20.31.848,visual search task ,2024.1.5,None,2024-10-10 22h20.37.669562 +0530,
73,0,73,0,135.08041916599996,,135.05855429099984,10,135.08041916599996,135.08041916599996,0.014914290999968216,137.1064570829999,[0.15166666666666667],[0.30833333333333335],[1],[0],[0],[2.033365791000051],['target'],505680,001,2024-10-10_22h20.31.848,visual search task ,2024.1.5,None,2024-10-10 22h20.37.669562 +0530,
74,0,74,0,137.13091479099967,,137.1086987079998,10,137.13091479099967,137.13091479099967,0.015039707999676466,138.94798349999974,[0.20833333333333334],[0.11166666666666666],[1],[0],[0],[1.824642459000188],['target'],505680,001,2024-10-10_22h20.31.848,visual search task ,2024.1.5,None,2024-10-10 22h20.37.669562 +0530,
75,0,75,0,138.96338249999962,,138.95023524999988,5,138.96338249999962,138.96338249999962,0.008122166000248399,140.61387958299974,[0.07],[0.23833333333333334],[1],[0],[0],[1.6558943750001163],['target'],505680,001,2024-10-10_22h20.31.848,visual search task ,2024.1.5,None,2024-10-10 22h20.37.669562 +0530,
76,0,76,0,140.63802241599979,,140.6161471659998,10,140.63802241599979,140.63802241599979,0.014897708000262355,141.8065217909998,[0.48333333333333334],[0.3333333333333333],[1],[0],[0],[1.1757368749999841],['target'],505680,001,2024-10-10_22h20.31.848,visual search task ,2024.1.5,None,2024-10-10 22h20.37.669562 +0530,
77,0,77,0,141.83071712499986,,141.8087672079996,10,141.83071712499986,141.83071712499986,0.015021917000012763,143.88136833299995,[0.195],[0.05333333333333334],[1],[0],[0],[2.0579380829999536],['target'],505680,001,2024-10-10_22h20.31.848,visual search task ,2024.1.5,None,2024-10-10 22h20.37.669562 +0530,
78,0,78,0,143.8967054159998,,143.88361958299993,5,143.8967054159998,143.8967054159998,0.007924916999854759,145.52340862499977,[0.051666666666666666],[-0.45166666666666666],[1],[0],[0],[1.63221220899959],['target'],505680,001,2024-10-10_22h20.31.848,visual search task ,2024.1.5,None,2024-10-10 22h20.37.669562 +0530,
79,0,79,0,145.5476551249999,,145.52568724999992,10,145.5476551249999,145.5476551249999,0.014868708999983937,147.05702754099957,[-0.365],[0.085],[1],[0],[0],[1.5168466660002196],['target'],505680,001,2024-10-10_22h20.31.848,visual search task ,2024.1.5,None,2024-10-10 22h20.37.669562 +0530,
80,0,80,0,147.0811819579999,,147.0592416659997,10,147.0811819579999,147.0811819579999,0.014776667000205634,148.9645805829996,[-0.255],[-0.16],[1],[0],[0],[1.8908712500001457],['target'],505680,001,2024-10-10_22h20.31.848,visual search task ,2024.1.5,None,2024-10-10 22h20.37.669562 +0530,
81,0,81,0,148.98871904099997,,148.9668403329997,10,148.98871904099997,148.98871904099997,0.014911209000274539,150.55704183299986,[-0.17166666666666666],[0.20833333333333334],[1],[0],[0],[1.5756796249997933],['target'],505680,001,2024-10-10_22h20.31.848,visual search task ,2024.1.5,None,2024-10-10 22h20.37.669562 +0530,
82,0,82,0,150.58170804099973,,150.55927470799998,10,150.58170804099973,150.58170804099973,0.015162916000008408,152.15642470799958,[0.49333333333333335],[-0.29],[1],[0],[0],[1.58226783300006],['target'],505680,001,2024-10-10_22h20.31.848,visual search task ,2024.1.5,None,2024-10-10 22h20.37.669562 +0530,
83,0,83,0,152.17143229099975,,152.15864833299975,5,152.17143229099975,152.17143229099975,0.007801084000220726,155.54722491599978,[0.02],[-0.018333333333333333],[1],[0],[0],[3.3811278339999262],[],505680,001,2024-10-10_22h20.31.848,visual search task ,2024.1.5,None,2024-10-10 22h20.37.669562 +0530,
84,0,84,0,155.56284012499964,,155.5495267499996,5,155.56284012499964,155.56284012499964,0.00815770799999882,157.52399687499974,[-0.23666666666666666],[0.42333333333333334],[1],[0],[0],[1.9666878329999236],['target'],505680,001,2024-10-10_22h20.31.848,visual search task ,2024.1.5,None,2024-10-10 22h20.37.669562 +0530,
85,0,85,0,157.54813370799957,,157.5262548329997,10,157.54813370799957,157.54813370799957,0.014845874999991793,159.6235198329996,[-0.125],[0.135],[1],[0],[0],[2.082813166000051],['target'],505680,001,2024-10-10_22h20.31.848,visual search task ,2024.1.5,None,2024-10-10 22h20.37.669562 +0530,
86,0,86,0,159.63855462499987,,159.62576049999961,5,159.63855462499987,159.63855462499987,0.007815540999672521,161.80735041599974,[0.36833333333333335],[0.2966666666666667],[1],[0],[0],[2.1741375000001426],['target'],505680,001,2024-10-10_22h20.31.848,visual search task ,2024.1.5,None,2024-10-10 22h20.37.669562 +0530,
87,0,87,0,161.831715541,,161.80972866599996,10,161.831715541,161.831715541,0.014880207999794948,164.34808266599975,[-0.25666666666666665],[0.07666666666666666],[1],[0],[0],[2.523810499999854],['target'],505680,001,2024-10-10_22h20.31.848,visual search task ,2024.1.5,None,2024-10-10 22h20.37.669562 +0530,
88,0,88,0,164.36334449999958,,164.35031633299968,5,164.36334449999958,164.36334449999958,0.007924958000330662,165.9902609159999,[-0.12333333333333334],[-0.21333333333333335],[1],[0],[0],[1.632333667000239],['target'],505680,001,2024-10-10_22h20.31.848,visual search task ,2024.1.5,None,2024-10-10 22h20.37.669562 +0530,
89,0,89,0,166.0057466659996,,165.99262545799957,5,166.0057466659996,166.0057466659996,0.007966084000145202,167.68048924999994,[-0.315],[-0.006666666666666667],[1],[0],[0],[1.6802546659996551],['target'],505680,001,2024-10-10_22h20.31.848,visual search task ,2024.1.5,None,2024-10-10 22h20.37.669562 +0530,
90,0,90,0,167.69578274999958,,167.682778333,5,167.69578274999958,167.69578274999958,0.008134292000249843,169.2240641249996,[0.43],[0.11333333333333333],[1],[0],[0],[1.5334774580001067],['target'],505680,001,2024-10-10_22h20.31.848,visual search task ,2024.1.5,None,2024-10-10 22h20.37.669562 +0530,
91,0,91,0,169.2483686659998,,169.22635387499986,10,169.2483686659998,169.2483686659998,0.014881082999636419,170.7082463329998,[-0.305],[0.035],[1],[0],[0],[1.467030917000102],['target'],505680,001,2024-10-10_22h20.31.848,visual search task ,2024.1.5,None,2024-10-10 22h20.37.669562 +0530,
92,0,92,0,170.735233291,,170.71066920799967,10,170.735233291,170.735233291,0.01664654200021687,172.5071023749997,[-0.425],[-0.19833333333333333],[1],[0],[0],[1.780186208000032],['target'],505680,001,2024-10-10_22h20.31.848,visual search task ,2024.1.5,None,2024-10-10 22h20.37.669562 +0530,
93,0,93,0,172.53113808299986,,172.50931187499964,10,172.53113808299986,172.53113808299986,0.014880375000302593,173.99799566599995,[0.13833333333333334],[-0.041666666666666664],[1],[0],[0],[1.474113582999962],['target'],505680,001,2024-10-10_22h20.31.848,visual search task ,2024.1.5,None,2024-10-10 22h20.37.669562 +0530,
94,0,94,0,174.0137263749998,,174.00024262499983,5,174.0137263749998,174.0137263749998,0.008029874999920139,175.54066374999957,[-0.25],[0.28],[1],[0],[0],[1.5327682500001174],['target'],505680,001,2024-10-10_22h20.31.848,visual search task ,2024.1.5,None,2024-10-10 22h20.37.669562 +0530,
95,0,95,0,175.5562351249996,,175.54292287499993,5,175.5562351249996,175.5562351249996,0.008101791000171943,176.9572949999997,[0.13166666666666665],[-0.22833333333333333],[1],[0],[0],[1.4066071249999368],['target'],505680,001,2024-10-10_22h20.31.848,visual search task ,2024.1.5,None,2024-10-10 22h20.37.669562 +0530,
96,0,96,0,176.98195612499967,,176.95959741599972,10,176.98195612499967,176.98195612499967,0.01530258299999332,179.9312820829996,[0.30833333333333335],[-0.335],[1],[0],[0],[2.9567193339998994],['target'],505680,001,2024-10-10_22h20.31.848,visual search task ,2024.1.5,None,2024-10-10 22h20.37.669562 +0530,
97,0,97,0,179.95584208299988,,179.93352524999955,10,179.95584208299988,179.95584208299988,0.014948833000289596,181.52355062499964,[0.215],[-0.27166666666666667],[1],[0],[0],[1.5754738750001707],['target'],505680,001,2024-10-10_22h20.31.848,visual search task ,2024.1.5,None,2024-10-10 22h20.37.669562 +0530,
98,0,98,0,181.54795766599955,,181.525797625,10,181.54795766599955,181.54795766599955,0.014802334000250994,183.0314186249998,[-0.2],[0.45],[1],[0],[0],[1.4911851249999017],['target'],505680,001,2024-10-10_22h20.31.848,visual search task ,2024.1.5,None,2024-10-10 22h20.37.669562 +0530,
99,0,99,0,183.04675166599964,,183.03366724999978,5,183.04675166599964,183.04675166599964,0.00802770900008909,185.04667074999998,[-0.49333333333333335],[-0.31],[1],[0],[0],[2.0052956660001655],['target'],505680,001,2024-10-10_22h20.31.848,visual search task ,2024.1.5,None,2024-10-10 22h20.37.669562 +0530,
100,0,100,0,185.06215508299965,,185.04894824999974,5,185.06215508299965,185.06215508299965,0.007981540999935532,186.37368708299982,[0.04666666666666667],[-0.14166666666666666],[1],[0],[0],[1.3170995000000403],['target'],505680,001,2024-10-10_22h20.31.848,visual search task ,2024.1.5,None,2024-10-10 22h20.37.669562 +0530,
101,0,101,0,186.3887351659996,,186.37595545799968,5,186.3887351659996,186.3887351659996,0.007838749999791617,187.6738732079998,[0.21333333333333335],[0.21166666666666667],[1],[0],[0],[1.2904475000000275],['target'],505680,001,2024-10-10_22h20.31.848,visual search task ,2024.1.5,None,2024-10-10 22h20.37.669562 +0530,
102,0,102,0,187.69899658299983,,187.67625033299964,10,187.69899658299983,187.69899658299983,0.015388875000098778,189.33145254099963,[-0.435],[0.10166666666666667],[1],[0],[0],[1.6402302500000587],['target'],505680,001,2024-10-10_22h20.31.848,visual search task ,2024.1.5,None,2024-10-10 22h20.37.669562 +0530,
103,0,103,0,189.35545495799988,,189.3337221249999,10,189.35545495799988,189.35545495799988,0.014745624999704887,191.08140458299977,[-0.39],[-0.24666666666666667],[1],[0],[0],[1.7332730839998476],['target'],505680,001,2024-10-10_22h20.31.848,visual search task ,2024.1.5,None,2024-10-10 22h20.37.669562 +0530,
104,0,104,0,191.09676483299972,,191.08364858299956,5,191.09676483299972,191.09676483299972,0.007953958000143757,193.11358833299983,[0.38333333333333336],[-0.425],[1],[0],[0],[2.0223999580002783],['target'],505680,001,2024-10-10_22h20.31.848,visual search task ,2024.1.5,None,2024-10-10 22h20.37.669562 +0530,
105,0,105,0,193.13799116599967,,193.1158685829996,10,193.13799116599967,193.13799116599967,0.014935417000287998,195.023680625,[-0.245],[0.008333333333333333],[1],[0],[0],[1.8931988750000528],['target'],505680,001,2024-10-10_22h20.31.848,visual search task ,2024.1.5,None,2024-10-10 22h20.37.669562 +0530,
106,0,106,0,195.0389205409997,,195.0259096249997,5,195.0389205409997,195.0389205409997,0.008115292000184127,196.43023454099966,[0.02666666666666667],[-0.105],[1],[0],[0],[1.3965561660002095],['target'],505680,001,2024-10-10_22h20.31.848,visual search task ,2024.1.5,None,2024-10-10 22h20.37.669562 +0530,
107,0,107,0,196.4547174999998,,196.43255358299984,10,196.4547174999998,196.4547174999998,0.014860499999940657,198.4312662909997,[-0.135],[-0.20166666666666666],[1],[0],[0],[1.9841840419999244],['target'],505680,001,2024-10-10_22h20.31.848,visual search task ,2024.1.5,None,2024-10-10 22h20.37.669562 +0530,
108,0,108,0,198.44666033299973,,198.43355154099982,5,198.44666033299973,198.44666033299973,0.008033959000385948,199.81384999999955,[-0.19666666666666666],[0.22833333333333333],[1],[0],[0],[1.3726536670001224],['target'],505680,001,2024-10-10_22h20.31.848,visual search task ,2024.1.5,None,2024-10-10 22h20.37.669562 +0530,
109,0,109,0,199.82944170799965,,199.81622662499967,5,199.82944170799965,199.82944170799965,0.008054082999933598,201.21335849999969,[0.36],[0.23333333333333334],[1],[0],[0],[1.3894037089999074],['target'],505680,001,2024-10-10_22h20.31.848,visual search task ,2024.1.5,None,2024-10-10 22h20.37.669562 +0530,
110,0,110,0,201.22889237499976,,201.21562295799959,5,201.22889237499976,201.22889237499976,0.008057250000092608,202.55673929099976,[0.035],[0.2683333333333333],[1],[0],[0],[1.3334181250002075],['target'],505680,001,2024-10-10_22h20.31.848,visual search task ,2024.1.5,None,2024-10-10 22h20.37.669562 +0530,
111,0,111,0,202.58125516599966,,202.5590129999996,10,202.58125516599966,202.58125516599966,0.014876749999984895,204.14787470799956,[0.435],[0.041666666666666664],[1],[0],[0],[1.5743777499997123],['target'],505680,001,2024-10-10_22h20.31.848,visual search task ,2024.1.5,None,2024-10-10 22h20.37.669562 +0530,
112,0,112,0,204.1721081249998,,204.1501342079996,10,204.1721081249998,204.1721081249998,0.014824500000031549,205.53988633299969,[0.055],[0.2833333333333333],[1],[0],[0],[1.3752174579999519],['target'],505680,001,2024-10-10_22h20.31.848,visual search task ,2024.1.5,None,2024-10-10 22h20.37.669562 +0530,
113,0,113,0,205.55538629099965,,205.54215524999972,5,205.55538629099965,205.55538629099965,0.008158916999946086,206.89661516599972,[0.29833333333333334],[-0.27666666666666667],[1],[0],[0],[1.3466587090001667],['target'],505680,001,2024-10-10_22h20.31.848,visual search task ,2024.1.5,None,2024-10-10 22h20.37.669562 +0530,
114,0,114,0,206.9121534159999,,206.89890262499966,5,206.9121534159999,206.9121534159999,0.007960041999922396,209.99078562499972,[-0.46166666666666667],[0.09833333333333333],[1],[0],[0],[3.0842934170000262],['target'],505680,001,2024-10-10_22h20.31.848,visual search task ,2024.1.5,None,2024-10-10 22h20.37.669562 +0530,
115,0,115,0,210.0062644579998,,209.99315666599978,5,210.0062644579998,210.0062644579998,0.00812099999984639,211.94056604099978,[0.38333333333333336],[-0.44166666666666665],[1],[0],[0],[1.9396933749999334],['target'],505680,001,2024-10-10_22h20.31.848,visual search task ,2024.1.5,None,2024-10-10 22h20.37.669562 +0530,
116,0,116,0,211.955853166,,211.94286358299996,5,211.955853166,211.955853166,0.007975458000146318,213.69691595799986,[-0.11333333333333333],[-0.07833333333333334],[1],[0],[0],[1.7464586250002867],['target'],505680,001,2024-10-10_22h20.31.848,visual search task ,2024.1.5,None,2024-10-10 22h20.37.669562 +0530,
117,0,117,0,213.72134287499966,,213.69925691599974,10,213.72134287499966,213.72134287499966,0.015013041000202065,214.89813966599968,[0.10833333333333334],[0.2633333333333333],[1],[0],[0],[1.1841997500000616],['target'],505680,001,2024-10-10_22h20.31.848,visual search task ,2024.1.5,None,2024-10-10 22h20.37.669562 +0530,
118,0,118,0,214.91346424999983,,214.90039862499998,5,214.91346424999983,214.91346424999983,0.007951582999794482,216.3402511659997,[0.435],[0.38333333333333336],[1],[0],[0],[1.4321982500000559],['target'],505680,001,2024-10-10_22h20.31.848,visual search task ,2024.1.5,None,2024-10-10 22h20.37.669562 +0530,
119,0,119,0,216.35606387499956,,216.34255712499998,5,216.35606387499956,216.35606387499956,0.008191874999738502,218.6306062079998,[-0.43],[-0.2633333333333333],[1],[0],[0],[2.2801667089997864],['target'],505680,001,2024-10-10_22h20.31.848,visual search task ,2024.1.5,None,2024-10-10 22h20.37.669562 +0530,
120,0,120,0,218.65496079099967,,218.63287045799962,10,218.65496079099967,218.65496079099967,0.014906708000125946,220.33976187499957,[0.105],[0.34833333333333333],[1],[0],[0],[1.692289417000211],['target'],505680,001,2024-10-10_22h20.31.848,visual search task ,2024.1.5,None,2024-10-10 22h20.37.669562 +0530,
121,0,121,0,220.35495487499975,,220.34199970799955,5,220.35495487499975,220.35495487499975,0.00784350000003542,221.59047541599966,[-0.135],[0.08833333333333333],[1],[0],[0],[1.2410120829999869],['target'],505680,001,2024-10-10_22h20.31.848,visual search task ,2024.1.5,None,2024-10-10 22h20.37.669562 +0530,
122,0,122,0,221.6055522079996,,221.59272729099985,5,221.6055522079996,221.6055522079996,0.007834374999674765,224.1571649579996,[-0.25666666666666665],[-0.20833333333333334],[1],[0],[0],[2.5569633329996577],['target'],505680,001,2024-10-10_22h20.31.848,visual search task ,2024.1.5,None,2024-10-10 22h20.37.669562 +0530,
123,0,123,0,224.18135412499987,,224.1595014999998,10,224.18135412499987,224.18135412499987,0.014887125000313972,225.64874299999974,[0.2816666666666667],[-0.325],[1],[0],[0],[1.4746635840001545],['target'],505680,001,2024-10-10_22h20.31.848,visual search task ,2024.1.5,None,2024-10-10 22h20.37.669562 +0530,
124,0,124,0,225.66432820799992,,225.6509780409997,5,225.66432820799992,225.66432820799992,0.008252750000337983,227.65729541599967,[-0.24166666666666667],[-0.14666666666666667],[1],[0],[0],[1.9984311250000246],['target'],505680,001,2024-10-10_22h20.31.848,visual search task ,2024.1.5,None,2024-10-10 22h20.37.669562 +0530,
125,0,125,0,227.68185020799956,,227.65960095799983,10,227.68185020799956,227.68185020799956,0.014848457999960374,230.4146308329996,[0.3283333333333333],[0.135],[1],[0],[0],[2.740514874999917],['target'],505680,001,2024-10-10_22h20.31.848,visual search task ,2024.1.5,None,2024-10-10 22h20.37.669562 +0530,
126,0,126,0,230.43012383299993,,230.41690524999967,5,230.43012383299993,230.43012383299993,0.007984540999586898,232.47396954099986,[0.24833333333333332],[0.275],[1],[0],[0],[2.0494412920002105],['target'],505680,001,2024-10-10_22h20.31.848,visual search task ,2024.1.5,None,2024-10-10 22h20.37.669562 +0530,
127,0,127,0,232.48979779099955,,232.47632904099964,5,232.48979779099955,232.48979779099955,0.008225417000176094,233.79688391599984,[-0.11333333333333333],[0.08166666666666667],[1],[0],[0],[1.312660790999871],['target'],505680,001,2024-10-10_22h20.31.848,visual search task ,2024.1.5,None,2024-10-10 22h20.37.669562 +0530,
128,0,128,0,233.821461,,233.79913708299955,10,233.821461,233.821461,0.015147499999784486,235.7148506249996,[0.2683333333333333],[-0.34833333333333333],[1],[0],[0],[1.9008897910002815],['target'],505680,001,2024-10-10_22h20.31.848,visual search task ,2024.1.5,None,2024-10-10 22h20.37.669562 +0530,
129,0,129,0,235.7397270409997,,235.71707920799963,10,235.7397270409997,235.7397270409997,0.015287624999928084,237.9816504999999,[-0.028333333333333332],[-0.16333333333333333],[1],[0],[0],[2.2496077499999956],['target'],505680,001,2024-10-10_22h20.31.848,visual search task ,2024.1.5,None,2024-10-10 22h20.37.669562 +0530,
130,0,130,0,238.00604941599977,,237.98388445799992,10,238.00604941599977,238.00604941599977,0.014843041999938578,239.26458179099973,[0.18833333333333332],[-0.15833333333333333],[1],[0],[0],[1.2661663750000116],['target'],505680,001,2024-10-10_22h20.31.848,visual search task ,2024.1.5,None,2024-10-10 22h20.37.669562 +0530,
131,0,131,0,239.27961749999986,,239.26679016599974,5,239.27961749999986,239.27961749999986,0.007875875000081578,240.67436933299996,[0.0],[0.15],[1],[0],[0],[1.4000182089998816],['target'],505680,001,2024-10-10_22h20.31.848,visual search task ,2024.1.5,None,2024-10-10 22h20.37.669562 +0530,
132,0,132,0,240.69907716599982,,240.6766330409996,10,240.69907716599982,240.69907716599982,0.015089707999777602,242.02292233299977,[0.4166666666666667],[0.37833333333333335],[1],[0],[0],[1.3315422919999946],['target'],505680,001,2024-10-10_22h20.31.848,visual search task ,2024.1.5,None,2024-10-10 22h20.37.669562 +0530,
133,0,133,0,242.04722583299963,,242.02515083299977,10,242.04722583299963,242.04722583299963,0.014921209000021918,243.73972691599965,[0.085],[0.04666666666666667],[1],[0],[0],[1.7000069169998824],['target'],505680,001,2024-10-10_22h20.31.848,visual search task ,2024.1.5,None,2024-10-10 22h20.37.669562 +0530,
134,0,134,0,243.76384670799962,,243.741951041,10,243.76384670799962,243.76384670799962,0.014775167000152578,245.42315733299984,[0.33166666666666667],[-0.19166666666666668],[1],[0],[0],[1.6667355000004136],['target'],505680,001,2024-10-10_22h20.31.848,visual search task ,2024.1.5,None,2024-10-10 22h20.37.669562 +0530,
135,0,135,0,245.44729474999986,,245.4254061659999,10,245.44729474999986,245.44729474999986,0.014796500000102242,248.681302083,[0.016666666666666666],[0.17666666666666667],[1],[0],[0],[3.241466749999745],['target'],505680,001,2024-10-10_22h20.31.848,visual search task ,2024.1.5,None,2024-10-10 22h20.37.669562 +0530,
136,0,136,0,248.70557970799973,,248.6835639159999,10,248.70557970799973,248.70557970799973,0.015008832999683364,250.47379674999956,[-0.2633333333333333],[-0.275],[1],[0],[0],[1.7756137080000371],['target'],505680,001,2024-10-10_22h20.31.848,visual search task ,2024.1.5,None,2024-10-10 22h20.37.669562 +0530,
137,0,137,0,250.4888810409998,,250.47598662499968,5,250.4888810409998,250.4888810409998,0.007851625000057538,251.7966799159999,[-0.015],[-0.245],[1],[0],[0],[1.3131730000000061],['target'],505680,001,2024-10-10_22h20.31.848,visual search task ,2024.1.5,None,2024-10-10 22h20.37.669562 +0530,
138,0,138,0,251.82125129099995,,251.79901970799983,10,251.82125129099995,251.82125129099995,0.014932000000044354,253.31478708299983,[0.32666666666666666],[-0.45],[1],[0],[0],[1.5011905000001207],['target'],505680,001,2024-10-10_22h20.31.848,visual search task ,2024.1.5,None,2024-10-10 22h20.37.669562 +0530,
139,0,139,0,253.33011154099995,,253.31704841599958,5,253.33011154099995,253.33011154099995,0.007994708000296669,255.52384487499967,[-0.11666666666666667],[0.15166666666666667],[1],[0],[0],[2.1991561250001723],['target'],505680,001,2024-10-10_22h20.31.848,visual search task ,2024.1.5,None,2024-10-10 22h20.37.669562 +0530,
140,0,140,0,255.54824162499972,,255.5261553749997,10,255.54824162499972,255.54824162499972,0.014747082999747363,257.09014333299956,[-0.335],[0.23166666666666666],[1],[0],[0],[1.5496178749999672],['target'],505680,001,2024-10-10_22h20.31.848,visual search task ,2024.1.5,None,2024-10-10 22h20.37.669562 +0530,
141,0,141,0,257.1053401659997,,257.09235974999956,5,257.1053401659997,257.1053401659997,0.007791250000082073,258.59057987499955,[0.3616666666666667],[0.215],[1],[0],[0],[1.4907896669997172],['target'],505680,001,2024-10-10_22h20.31.848,visual search task ,2024.1.5,None,2024-10-10 22h20.37.669562 +0530,
142,0,142,0,258.60610604099975,,258.59297687499975,5,258.60610604099975,258.60610604099975,0.008008667000012792,260.0404451249997,[-0.18833333333333332],[0.22],[1],[0],[0],[1.4398712080001133],['target'],505680,001,2024-10-10_22h20.31.848,visual search task ,2024.1.5,None,2024-10-10 22h20.37.669562 +0530,
143,0,143,0,260.0556480829996,,260.04272679099995,5,260.0556480829996,260.0556480829996,0.007950957999582897,261.8734288329997,[-0.23166666666666666],[-0.25166666666666665],[1],[0],[0],[1.8230886670003201],['target'],505680,001,2024-10-10_22h20.31.848,visual search task ,2024.1.5,None,2024-10-10 22h20.37.669562 +0530,
144,0,144,0,261.8977487909997,,261.8757573749999,10,261.8977487909997,261.8977487909997,0.01495824999983597,263.14785029099994,[-0.27],[-0.1],[1],[0],[0],[1.2575394579998829],['target'],505680,001,2024-10-10_22h20.31.848,visual search task ,2024.1.5,None,2024-10-10 22h20.37.669562 +0530,
145,0,145,0,263.1720635409997,,263.1501157499997,10,263.1720635409997,263.1720635409997,0.014935624999907304,267.2400755409999,[0.13],[-0.465],[1],[0],[0],[4.075340166000387],['target'],505680,001,2024-10-10_22h20.31.848,visual search task ,2024.1.5,None,2024-10-10 22h20.37.669562 +0530,
146,0,146,0,267.26449516599996,,267.2424423749999,10,267.26449516599996,267.26449516599996,0.014961082999889186,269.1063783749996,[-0.035],[0.245],[1],[0],[0],[1.8493579169999066],['target'],505680,001,2024-10-10_22h20.31.848,visual search task ,2024.1.5,None,2024-10-10 22h20.37.669562 +0530,
147,0,147,0,269.13039449999997,,269.1086356659998,10,269.13039449999997,269.13039449999997,0.014807709000251634,271.5314484579999,[-0.2],[0.46],[1],[0],[0],[2.408331791999899],['target'],505680,001,2024-10-10_22h20.31.848,visual search task ,2024.1.5,None,2024-10-10 22h20.37.669562 +0530,
148,0,148,0,271.5469262079996,,271.5337307079999,5,271.5469262079996,271.5469262079996,0.0080635419999453,274.240590333,[0.056666666666666664],[0.19],[1],[0],[0],[2.6991539590003413],['target'],505680,001,2024-10-10_22h20.31.848,visual search task ,2024.1.5,None,2024-10-10 22h20.37.669562 +0530,
149,0,149,0,274.2562439999997,,274.2428562079999,5,274.2562439999997,274.2562439999997,0.008074791000126424,277.5737152079996,[-0.11166666666666666],[0.24833333333333332],[1],[0],[0],[3.3231503750002958],['target'],505680,001,2024-10-10_22h20.31.848,visual search task ,2024.1.5,None,2024-10-10 22h20.37.669562 +0530,
150,0,150,0,277.59821487499994,,277.57602233299986,10,277.59821487499994,277.59821487499994,0.014904000000115047,278.8146069579998,[0.42833333333333334],[0.18166666666666667],[1],[0],[0],[1.2240648329998294],['target'],505680,001,2024-10-10_22h20.31.848,visual search task ,2024.1.5,None,2024-10-10 22h20.37.669562 +0530,
151,0,151,0,278.8296705829998,,278.81685358299956,5,278.8296705829998,278.8296705829998,0.007934791000025143,280.88056774999995,[-0.49833333333333335],[-0.4166666666666667],[1],[0],[0],[2.0561716249999336],['target'],505680,001,2024-10-10_22h20.31.848,visual search task ,2024.1.5,None,2024-10-10 22h20.37.669562 +0530,
152,0,152,0,280.89575183299985,,280.88281412499964,5,280.89575183299985,280.89575183299985,0.007883332999881532,282.956626875,[0.17666666666666667],[-0.48],[1],[0],[0],[2.0662889589998485],['target'],505680,001,2024-10-10_22h20.31.848,visual search task ,2024.1.5,None,2024-10-10 22h20.37.669562 +0530,
153,0,153,0,282.9721723329999,,282.9589907499999,5,282.9721723329999,282.9721723329999,0.007971125000040047,284.4241187909997,[0.3566666666666667],[0.19166666666666668],[1],[0],[0],[1.4575513340000725],['target'],505680,001,2024-10-10_22h20.31.848,visual search task ,2024.1.5,None,2024-10-10 22h20.37.669562 +0530,
154,0,154,0,284.4394256249998,,284.42638020799996,5,284.4394256249998,284.4394256249998,0.008002334000138944,286.46361795799976,[0.185],[-0.32],[1],[0],[0],[2.029566167000212],['target'],505680,001,2024-10-10_22h20.31.848,visual search task ,2024.1.5,None,2024-10-10 22h20.37.669562 +0530,
155,0,155,0,286.4791369579998,,286.4659849159998,5,286.4791369579998,286.4791369579998,0.008097708000150305,287.68050349999976,[0.20333333333333334],[-0.18],[1],[0],[0],[1.206838166000125],['target'],505680,001,2024-10-10_22h20.31.848,visual search task ,2024.1.5,None,2024-10-10 22h20.37.669562 +0530,
156,0,156,0,287.70481112499965,,287.6827398329997,10,287.70481112499965,287.70481112499965,0.014952208000067913,289.4730438329998,[-0.4216666666666667],[0.4716666666666667],[1],[0],[0],[1.7756836669996119],['target'],505680,001,2024-10-10_22h20.31.848,visual search task ,2024.1.5,None,2024-10-10 22h20.37.669562 +0530,
157,0,157,0,289.48839062499974,,289.47525841599963,5,289.48839062499974,289.48839062499974,0.008024791000025289,291.02343804099974,[0.43833333333333335],[0.33166666666666667],[1],[0],[0],[1.5404896659997576],['target'],505680,001,2024-10-10_22h20.31.848,visual search task ,2024.1.5,None,2024-10-10 22h20.37.669562 +0530,
158,0,158,0,291.0388087079996,,291.02573612499964,5,291.0388087079996,291.0388087079996,0.007883209000283387,292.8133638749996,[-0.37666666666666665],[0.38166666666666665],[1],[0],[0],[1.7801194160001614],['target'],505680,001,2024-10-10_22h20.31.848,visual search task ,2024.1.5,None,2024-10-10 22h20.37.669562 +0530,
159,0,159,0,292.8288255829998,,292.81562166599997,5,292.8288255829998,292.8288255829998,0.007979750000231434,294.43023695799957,[0.34833333333333333],[-0.2833333333333333],[1],[0],[0],[1.6069508749997112],['target'],505680,001,2024-10-10_22h20.31.848,visual search task ,2024.1.5,None,2024-10-10 22h20.37.669562 +0530,
160,0,160,0,294.44565191599986,,294.43248941599995,5,294.44565191599986,294.44565191599986,0.008047667000028014,295.6400698749999,[0.3233333333333333],[0.15666666666666668],[1],[0],[0],[1.1998330830001578],['target'],505680,001,2024-10-10_22h20.31.848,visual search task ,2024.1.5,None,2024-10-10 22h20.37.669562 +0530,
161,0,161,0,295.66428933299994,,295.64236212499964,10,295.66428933299994,295.66428933299994,0.01478079099979368,297.79805070799966,[0.14833333333333334],[-0.44666666666666666],[1],[0],[0],[2.1412870409999414],['target'],505680,001,2024-10-10_22h20.31.848,visual search task ,2024.1.5,None,2024-10-10 22h20.37.669562 +0530,
162,0,162,0,297.82225145799976,,297.80029937499967,10,297.82225145799976,297.82225145799976,0.014883917000133806,299.1235899579997,[0.11],[-0.056666666666666664],[1],[0],[0],[1.308787209000002],['target'],505680,001,2024-10-10_22h20.31.848,visual search task ,2024.1.5,None,2024-10-10 22h20.37.669562 +0530,
163,0,163,0,299.147306416,,299.1257632079996,10,299.147306416,299.147306416,0.01457075000007535,300.9483377079996,[0.22166666666666668],[0.48833333333333334],[1],[0],[0],[1.8083153329998822],['target'],505680,001,2024-10-10_22h20.31.848,visual search task ,2024.1.5,None,2024-10-10 22h20.37.669562 +0530,
164,0,164,0,300.96397954099984,,300.9506487499998,5,300.96397954099984,300.96397954099984,0.008004874999642198,302.50724487499974,[0.19833333333333333],[-0.2966666666666667],[1],[0],[0],[1.5489587080001002],['target'],505680,001,2024-10-10_22h20.31.848,visual search task ,2024.1.5,None,2024-10-10 22h20.37.669562 +0530,
165,0,165,0,302.5315164159997,,302.50955158299985,10,302.5315164159997,302.5315164159997,0.014654500000233384,304.48965662499995,[-0.22],[0.19833333333333333],[1],[0],[0],[1.9657882920000702],['target'],505680,001,2024-10-10_22h20.31.848,visual search task ,2024.1.5,None,2024-10-10 22h20.37.669562 +0530,
166,0,166,0,304.50483987499956,,304.49187570799995,5,304.50483987499956,304.50483987499956,0.00786462499991103,305.70740666599977,[0.07333333333333333],[-0.01],[1],[0],[0],[1.2080221669998537],['target'],505680,001,2024-10-10_22h20.31.848,visual search task ,2024.1.5,None,2024-10-10 22h20.37.669562 +0530,
167,0,167,0,305.7317338749999,,305.7097287499996,10,305.7317338749999,305.7317338749999,0.014765542000077403,307.5981355409999,[0.145],[-0.4583333333333333],[1],[0],[0],[1.8740180829995552],['target'],505680,001,2024-10-10_22h20.31.848,visual search task ,2024.1.5,None,2024-10-10 22h20.37.669562 +0530,
168,0,168,0,307.62260516599963,,307.60038670799986,10,307.62260516599963,307.62260516599963,0.015134624999973312,309.2239234579997,[0.4216666666666667],[-0.285],[1],[0],[0],[1.6087588750001487],['target'],505680,001,2024-10-10_22h20.31.848,visual search task ,2024.1.5,None,2024-10-10 22h20.37.669562 +0530,
169,0,169,0,309.23887799999966,,309.2261516249996,5,309.23887799999966,309.23887799999966,0.0077342499998849235,310.67349420799974,[-0.22333333333333333],[-0.1],[1],[0],[0],[1.4399556670000493],['target'],505680,001,2024-10-10_22h20.31.848,visual search task ,2024.1.5,None,2024-10-10 22h20.37.669562 +0530,
170,0,170,0,310.6888174579999,,310.6757612079996,5,310.6888174579999,310.6888174579999,0.00790858299978936,312.14056645799974,[0.21333333333333335],[0.375],[1],[0],[0],[1.4572771250000187],['target'],505680,001,2024-10-10_22h20.31.848,visual search task ,2024.1.5,None,2024-10-10 22h20.37.669562 +0530,
171,0,171,0,312.1556516659998,,312.1428227909996,5,312.1556516659998,312.1556516659998,0.007842417000119895,313.70679604099996,[-0.43666666666666665],[-0.33],[1],[0],[0],[1.556477915999949],['target'],505680,001,2024-10-10_22h20.31.848,visual search task ,2024.1.5,None,2024-10-10 22h20.37.669562 +0530,
172,0,172,0,313.72224741599985,,313.7090762079997,5,313.72224741599985,313.72224741599985,0.007910166999863577,315.1737267499998,[0.2633333333333333],[0.38],[1],[0],[0],[1.4571221669998522],['target'],505680,001,2024-10-10_22h20.31.848,visual search task ,2024.1.5,None,2024-10-10 22h20.37.669562 +0530,
173,0,173,0,315.1888994579999,,315.17597416599983,5,315.1888994579999,315.1888994579999,0.007895834000009927,316.7469809999998,[0.08666666666666667],[-0.4216666666666667],[1],[0],[0],[1.5634319999999207],['target'],505680,001,2024-10-10_22h20.31.848,visual search task ,2024.1.5,None,2024-10-10 22h20.37.669562 +0530,
174,0,174,0,316.7712900829997,,316.74926749999986,10,316.7712900829997,316.7712900829997,0.014845165999759047,318.53146016599976,[-0.4266666666666667],[-0.42],[1],[0],[0],[1.7677385000001777],[],505680,001,2024-10-10_22h20.31.848,visual search task ,2024.1.5,None,2024-10-10 22h20.37.669562 +0530,
175,0,175,0,318.555815791,,318.53375345799986,10,318.555815791,318.555815791,0.014956500000153028,320.4065008749999,[0.485],[0.3283333333333333],[1],[0],[0],[1.858118457999808],['target'],505680,001,2024-10-10_22h20.31.848,visual search task ,2024.1.5,None,2024-10-10 22h20.37.669562 +0530,
176,0,176,0,320.4307148329999,,320.40871362499956,10,320.4307148329999,320.4307148329999,0.01476787499996135,322.5148291249998,[-0.4716666666666667],[0.165],[1],[0],[0],[2.091653958000279],[],505680,001,2024-10-10_22h20.31.848,visual search task ,2024.1.5,None,2024-10-10 22h20.37.669562 +0530,
177,0,177,0,322.5393315829997,,322.5170775409997,10,322.5393315829997,322.5393315829997,0.014960458999667026,323.80656354099983,[-0.32666666666666666],[0.335],[1],[0],[0],[1.2748366659998283],['target'],505680,001,2024-10-10_22h20.31.848,visual search task ,2024.1.5,None,2024-10-10 22h20.37.669562 +0530,
178,0,178,0,323.8217912079999,,323.8088463749996,5,323.8217912079999,323.8217912079999,0.007822457999736798,325.93044112499956,[0.09333333333333334],[-0.115],[1],[0],[0],[2.114144957999997],['target'],505680,001,2024-10-10_22h20.31.848,visual search task ,2024.1.5,None,2024-10-10 22h20.37.669562 +0530,
179,0,179,0,325.95467062499984,,325.93276899999955,10,325.95467062499984,325.95467062499984,0.01478350000024875,327.1980980829999,[-0.013333333333333334],[-0.18666666666666668],[1],[0],[0],[1.2508854580000843],['target'],505680,001,2024-10-10_22h20.31.848,visual search task ,2024.1.5,None,2024-10-10 22h20.37.669562 +0530,
180,0,180,0,327.2226337909997,,327.2003673329996,10,327.2226337909997,327.2226337909997,0.015000500000041939,328.5570218329999,[-0.3],[-0.07333333333333333],[1],[0],[0],[1.342064584000127],['target'],505680,001,2024-10-10_22h20.31.848,visual search task ,2024.1.5,None,2024-10-10 22h20.37.669562 +0530,
181,0,181,0,328.5722405409997,,328.5592221659999,5,328.5722405409997,328.5722405409997,0.007833625000330358,330.396828208,[0.15],[0.44166666666666665],[1],[0],[0],[1.830098750000161],['target'],505680,001,2024-10-10_22h20.31.848,visual search task ,2024.1.5,None,2024-10-10 22h20.37.669562 +0530,
182,0,182,0,330.421298708,,330.39915699999983,10,330.421298708,330.421298708,0.014946166999834531,332.63125624999975,[-0.37166666666666665],[-0.17166666666666666],[1],[0],[0],[2.217498208000052],['target'],505680,001,2024-10-10_22h20.31.848,visual search task ,2024.1.5,None,2024-10-10 22h20.37.669562 +0530,
183,0,183,0,332.65589270799956,,332.6335063749998,10,332.65589270799956,332.65589270799956,0.015031624999664928,333.92307749999964,[-0.16333333333333333],[-0.08],[1],[0],[0],[1.274889875000099],['target'],505680,001,2024-10-10_22h20.31.848,visual search task ,2024.1.5,None,2024-10-10 22h20.37.669562 +0530,
184,0,184,0,333.94713754099985,,333.9253222499997,10,333.94713754099985,333.94713754099985,0.014795459000197297,335.58986041599974,[-0.305],[0.335],[1],[0],[0],[1.6500912500000595],['target'],505680,001,2024-10-10_22h20.31.848,visual search task ,2024.1.5,None,2024-10-10 22h20.37.669562 +0530,
185,0,185,0,335.6142310829996,,335.59211749999986,10,335.6142310829996,335.6142310829996,0.014935916000013094,339.4982364579996,[-0.39],[0.14666666666666667],[1],[0],[0],[3.8915387080000983],['target'],505680,001,2024-10-10_22h20.31.848,visual search task ,2024.1.5,None,2024-10-10 22h20.37.669562 +0530,
186,0,186,0,339.5231944999996,,339.5004826659997,10,339.5231944999996,339.5231944999996,0.01563766700019187,340.4647269579996,[-0.2833333333333333],[0.19166666666666668],[1],[0],[0],[0.9489743750000343],['target'],505680,001,2024-10-10_22h20.31.848,visual search task ,2024.1.5,None,2024-10-10 22h20.37.669562 +0530,
187,0,187,0,340.4801336249998,,340.4669745409997,5,340.4801336249998,340.4801336249998,0.00815870900032678,341.7305276249999,[0.14],[0.21],[1],[0],[0],[1.255728375000217],['target'],505680,001,2024-10-10_22h20.31.848,visual search task ,2024.1.5,None,2024-10-10 22h20.37.669562 +0530,
188,0,188,0,341.7457196659998,,341.73280824999983,5,341.7457196659998,341.7457196659998,0.007974332999765466,344.59039204099963,[0.46166666666666667],[0.33166666666666667],[1],[0],[0],[2.8500047090001317],['target'],505680,001,2024-10-10_22h20.31.848,visual search task ,2024.1.5,None,2024-10-10 22h20.37.669562 +0530,
189,0,189,0,344.6148347499998,,344.59268104099965,10,344.6148347499998,344.6148347499998,0.014829457999894657,346.4479323749997,[-0.455],[-0.24166666666666667],[1],[0],[0],[1.8407837499999005],['target'],505680,001,2024-10-10_22h20.31.848,visual search task ,2024.1.5,None,2024-10-10 22h20.37.669562 +0530,
190,0,190,0,346.46308795799996,,346.4501779159996,5,346.46308795799996,346.46308795799996,0.007902209000349103,347.94072308299974,[0.30666666666666664],[-0.315],[1],[0],[0],[1.4830036250000376],['target'],505680,001,2024-10-10_22h20.31.848,visual search task ,2024.1.5,None,2024-10-10 22h20.37.669562 +0530,
191,0,191,0,347.96503808299985,,347.94299404099957,10,347.96503808299985,347.96503808299985,0.014849333000256593,350.08156970799973,[0.013333333333333334],[0.45166666666666666],[1],[0],[0],[2.12408191600025],['target'],505680,001,2024-10-10_22h20.31.848,visual search task ,2024.1.5,None,2024-10-10 22h20.37.669562 +0530,
192,0,192,0,350.1058718329996,,350.08375287499985,10,350.1058718329996,350.1058718329996,0.015010291999715264,351.7317294999998,[-0.41],[-0.058333333333333334],[1],[0],[0],[1.6332813330000135],['target'],505680,001,2024-10-10_22h20.31.848,visual search task ,2024.1.5,None,2024-10-10 22h20.37.669562 +0530,
193,0,193,0,351.7472749999997,,351.73410562499976,5,351.7472749999997,351.7472749999997,0.00811550000025818,353.7575268329997,[-0.31833333333333336],[-0.38333333333333336],[1],[0],[0],[2.0156761659995936],['target'],505680,001,2024-10-10_22h20.31.848,visual search task ,2024.1.5,None,2024-10-10 22h20.37.669562 +0530,
194,0,194,0,353.7731544999997,,353.75982912499967,5,353.7731544999997,353.7731544999997,0.00810920799995074,355.7803544999997,[0.08],[0.04666666666666667],[1],[0],[0],[2.012796041999991],['target'],505680,001,2024-10-10_22h20.31.848,visual search task ,2024.1.5,None,2024-10-10 22h20.37.669562 +0530,
195,0,195,0,355.8048699579999,,355.78261829099984,10,355.8048699579999,355.8048699579999,0.01515479099998629,357.4980073749998,[0.115],[0.32666666666666666],[1],[0],[0],[1.70051658400007],['target'],505680,001,2024-10-10_22h20.31.848,visual search task ,2024.1.5,None,2024-10-10 22h20.37.669562 +0530,
196,0,196,0,357.52240679099987,,357.50028208299955,10,357.52240679099987,357.52240679099987,0.014875542000027053,358.7146053329998,[0.3416666666666667],[0.38333333333333336],[1],[0],[0],[1.199823416000072],['target'],505680,001,2024-10-10_22h20.31.848,visual search task ,2024.1.5,None,2024-10-10 22h20.37.669562 +0530,
197,0,197,0,358.73875391599995,,358.7168628329996,10,358.73875391599995,358.73875391599995,0.01476216699984434,360.9570253329998,[-0.4166666666666667],[0.44666666666666666],[1],[0],[0],[2.2257792909999807],['target'],505680,001,2024-10-10_22h20.31.848,visual search task ,2024.1.5,None,2024-10-10 22h20.37.669562 +0530,
198,0,198,0,360.9809436659998,,360.9593139579997,10,360.9809436659998,360.9809436659998,0.014670332999685343,363.81491366599994,[0.36],[-0.37666666666666665],[1],[0],[0],[2.841283165999812],['target'],505680,001,2024-10-10_22h20.31.848,visual search task ,2024.1.5,None,2024-10-10 22h20.37.669562 +0530,
199,0,199,0,363.8393189579997,,363.8171793749998,10,363.8393189579997,363.8393189579997,0.014829042000201298,365.6571193329996,[-0.49166666666666664],[-0.058333333333333334],[1],[0],[0],[1.825471916999959],['target'],505680,001,2024-10-10_22h20.31.848,visual search task ,2024.1.5,None,2024-10-10 22h20.37.669562 +0530,
