staircase.thisTrialN,staircase.stepSize,staircase.intensity,thisRow.t,notes,trial.started,fixation.started,grating.started,key_resp.started,fixation.stopped,grating.stopped,trial.stopped,corrAns,titl,key_resp.corr,staircase.response,key_resp.rt,participant,session,date,expName,psychopyVersion,frameRate,expStart,
0,2,10.0,0.013602666993392631,,0.005160499989870004,0.013602666993392631,0.5074843749898719,0.5074843749898719,0.5105644169962034,0.7946562080032891,13.011235625002882,left,-10.0,0,0,12.493752624999615,428277,001,2024-09-06_11h52.35.143,adaptive staircase 1,2024.1.5,None,2024-09-06 11h52.38.268443 +0530,
1,2,12.0,13.033763874991564,,13.011555832999875,13.033763874991564,13.508439208002528,13.508439208002528,13.528224832989508,13.794661583000561,16.227556291996734,left,-12.0,0,0,2.7087615839991486,428277,001,2024-09-06_11h52.35.143,adaptive staircase 1,2024.1.5,None,2024-09-06 11h52.38.268443 +0530,
2,1,14.0,16.237515582994092,,16.22771691699745,16.237515582994092,16.72496979199059,16.72496979199059,16.728528207997442,17.0116224999947,18.94735670799855,right,14.0,1,1,2.219561290999991,428277,001,2024-09-06_11h52.35.143,adaptive staircase 1,2024.1.5,None,2024-09-06 11h52.38.268443 +0530,
3,1,13.0,18.95828641699336,,18.947501791990362,18.95828641699336,19.441744582989486,19.441744582989486,19.445673750000424,19.72817595799279,20.181501749990275,right,13.0,1,1,0.7356848749914207,428277,001,2024-09-06_11h52.35.143,adaptive staircase 1,2024.1.5,None,2024-09-06 11h52.38.268443 +0530,
4,1,13.0,20.19158529199194,,20.181703124995693,20.19158529199194,20.680022792003,20.680022792003,20.680022792003,20.975332374990103,21.54309008299606,right,13.0,1,1,0.8594614580069901,428277,001,2024-09-06_11h52.35.143,adaptive staircase 1,2024.1.5,None,2024-09-06 11h52.38.268443 +0530,
5,1,13.0,21.549414541994338,,21.543202916989685,21.549414541994338,22.04160020800191,22.04160020800191,22.045130917002098,22.328544832998887,22.930716582995956,right,13.0,1,1,0.8849330419907346,428277,001,2024-09-06_11h52.35.143,adaptive staircase 1,2024.1.5,None,2024-09-06 11h52.38.268443 +0530,
6,1,12.0,22.941774207996787,,22.930839416992967,22.941774207996787,23.425094666992663,23.425094666992663,23.428698542003985,23.712328499997966,24.24649008299457,left,-12.0,1,1,0.8193463330098893,428277,001,2024-09-06_11h52.35.143,adaptive staircase 1,2024.1.5,None,2024-09-06 11h52.38.268443 +0530,
7,1,12.0,24.257541957995272,,24.246621124999365,24.257541957995272,24.74164366700279,24.74164366700279,24.74547866699868,25.028796124999644,25.526257791992975,right,12.0,0,0,0.7748818750114879,428277,001,2024-09-06_11h52.35.143,adaptive staircase 1,2024.1.5,None,2024-09-06 11h52.38.268443 +0530,
8,1,13.0,25.532711207997636,,25.526351624997915,25.532711207997636,26.024078791990178,26.024078791990178,26.02737366699148,26.3114457079937,27.230493666997063,right,13.0,1,1,1.2044980409991695,428277,001,2024-09-06_11h52.35.143,adaptive staircase 1,2024.1.5,None,2024-09-06 11h52.38.268443 +0530,
9,1,13.0,27.24081775000377,,27.23073608300183,27.24081775000377,27.72870474999945,27.72870474999945,27.72870474999945,28.024333583001862,28.392698625000776,left,-13.0,0,0,0.6548920000059297,428277,001,2024-09-06_11h52.35.143,adaptive staircase 1,2024.1.5,None,2024-09-06 11h52.38.268443 +0530,
10,1,14.0,28.39858720799384,,28.39282516700041,28.39858720799384,28.89089429199521,28.89089429199521,28.894763124990277,29.17894124999293,29.498193999999785,left,-14.0,0,0,0.6044709580019116,428277,001,2024-09-06_11h52.35.143,adaptive staircase 1,2024.1.5,None,2024-09-06 11h52.38.268443 +0530,
11,1,15.0,29.50788224999269,,29.498360457990202,29.50788224999269,29.995010166996508,29.995010166996508,29.995010166996508,30.29100254199875,31.044052333003492,left,-15.0,0,0,1.043259540994768,428277,001,2024-09-06_11h52.35.143,adaptive staircase 1,2024.1.5,None,2024-09-06 11h52.38.268443 +0530,
12,1,16.0,31.051532666999265,,31.04420645799837,31.051532666999265,31.54082208299951,31.54082208299951,31.545232582997414,31.82714045800094,32.44293383299373,right,16.0,1,1,0.9000949170003878,428277,001,2024-09-06_11h52.35.143,adaptive staircase 1,2024.1.5,None,2024-09-06 11h52.38.268443 +0530,
13,1,16.0,32.44943858300394,,32.44304870799533,32.44943858300394,32.94075479199819,32.94075479199819,32.943449667000095,33.227318416989874,33.593516249995446,left,-16.0,0,0,0.6416721249988768,428277,001,2024-09-06_11h52.35.143,adaptive staircase 1,2024.1.5,None,2024-09-06 11h52.38.268443 +0530,
14,1,17.0,33.600526624999475,,33.593635375000304,33.600526624999475,34.09167329200136,34.09167329200136,34.0958885,34.37913800000388,34.81011787499301,right,17.0,1,1,0.7157847920025233,428277,001,2024-09-06_11h52.35.143,adaptive staircase 1,2024.1.5,None,2024-09-06 11h52.38.268443 +0530,
15,1,17.0,34.81668962498952,,34.81022858299548,34.81668962498952,35.30835362499056,35.30835362499056,35.312455249993945,35.595887999996194,36.09751695799059,right,17.0,1,1,0.7859067919926019,428277,001,2024-09-06_11h52.35.143,adaptive staircase 1,2024.1.5,None,2024-09-06 11h52.38.268443 +0530,
16,1,17.0,36.107729124996695,,36.09767787499004,36.107729124996695,36.595602916990174,36.595602916990174,36.595602916990174,36.891669582997565,37.01082220800163,right,17.0,0,0,0.4053543340123724,428277,001,2024-09-06_11h52.35.143,adaptive staircase 1,2024.1.5,None,2024-09-06 11h52.38.268443 +0530,
17,1,18.0,37.020654041989474,,37.01104112499161,37.020654041989474,37.50831958299386,37.50831958299386,37.512781375000486,37.79572695799288,38.47758729199995,left,-18.0,0,0,0.9620571660052519,428277,001,2024-09-06_11h52.35.143,adaptive staircase 1,2024.1.5,None,2024-09-06 11h52.38.268443 +0530,
18,1,19.0,38.4872124579997,,38.477759999994305,38.4872124579997,38.975113416992826,38.975113416992826,38.979926667001564,39.26246633299161,39.94409612499294,right,19.0,1,1,0.957606832991587,428277,001,2024-09-06_11h52.35.143,adaptive staircase 1,2024.1.5,None,2024-09-06 11h52.38.268443 +0530,
19,1,19.0,39.95403658300347,,39.94424779199471,39.95403658300347,40.441718582995236,40.441718582995236,40.44522137499007,40.72863695799606,41.42739558299945,left,-19.0,0,0,0.974003499999526,428277,001,2024-09-06_11h52.35.143,adaptive staircase 1,2024.1.5,None,2024-09-06 11h52.38.268443 +0530,
20,1,20.0,41.43727216699335,,41.42761395800335,41.43727216699335,41.92497062499751,41.92497062499751,41.9291631669912,42.210921916994266,42.793405916992924,left,-20.0,1,1,0.8606648330023745,428277,001,2024-09-06_11h52.35.143,adaptive staircase 1,2024.1.5,None,2024-09-06 11h52.38.268443 +0530,
21,1,20.0,42.80013408299419,,42.793584832994384,42.80013408299419,43.29078695799399,43.29078695799399,43.29420316699543,43.577467416995205,44.16346424999938,right,20.0,0,0,0.8686533750005765,428277,001,2024-09-06_11h52.35.143,adaptive staircase 1,2024.1.5,None,2024-09-06 11h52.38.268443 +0530,
22,1,20.0,44.17425604199525,,44.163599332998274,44.17425604199525,44.66127399999823,44.66127399999823,44.66127399999823,44.95764354200219,45.477677582995966,right,20.0,1,1,0.8089462499920046,428277,001,2024-09-06_11h52.35.143,adaptive staircase 1,2024.1.5,None,2024-09-06 11h52.38.268443 +0530,
23,1,20.0,45.484501332990476,,45.47784520799178,45.484501332990476,45.97406508299173,45.97406508299173,45.97752020799089,46.26164266699925,46.49703104200307,left,-20.0,1,1,0.5190005830081645,428277,001,2024-09-06_11h52.35.143,adaptive staircase 1,2024.1.5,None,2024-09-06 11h52.38.268443 +0530,
24,0.5,20.0,46.50751745799789,,46.49719308299245,46.50751745799789,46.99549233299331,46.99549233299331,46.99549233299331,47.29168004199164,47.56346604200371,right,20.0,1,1,0.5647411670070142,428277,001,2024-09-06_11h52.35.143,adaptive staircase 1,2024.1.5,None,2024-09-06 11h52.38.268443 +0530,
25,0.5,19.5,47.57493941699795,,47.56368420799845,47.57493941699795,48.05829274999269,48.05829274999269,48.06242916699557,48.34591929199814,48.53042016699328,left,-19.5,0,0,0.4700382909941254,428277,001,2024-09-06_11h52.35.143,adaptive staircase 1,2024.1.5,None,2024-09-06 11h52.38.268443 +0530,
26,0.5,20.0,48.541762666995055,,48.530585041997256,48.541762666995055,49.025137332995655,49.025137332995655,49.0293175830011,49.31247412499215,50.21082212499459,left,-20.0,0,0,1.1751375000021653,428277,001,2024-09-06_11h52.35.143,adaptive staircase 1,2024.1.5,None,2024-09-06 11h52.38.268443 +0530,
27,0.5,20.0,50.22023449999688,,50.21098712499952,50.22023449999688,50.70841883298999,50.70841883298999,50.71195254199847,,50.843683792001684,right,20.0,1,1,0.12453687499510124,428277,001,2024-09-06_11h52.35.143,adaptive staircase 1,2024.1.5,None,2024-09-06 11h52.38.268443 +0530,
28,0.5,20.0,50.850964582990855,,50.843829749996075,50.850964582990855,51.341857541992795,51.341857541992795,51.345885582995834,51.62867229199037,51.84260874999745,left,-20.0,1,1,0.48798424999404233,428277,001,2024-09-06_11h52.35.143,adaptive staircase 1,2024.1.5,None,2024-09-06 11h52.38.268443 +0530,
29,0.5,20.0,51.848655916997814,,51.84269766700163,51.848655916997814,52.34158929200203,52.34158929200203,52.3455159169971,52.62869770800171,52.82901962500182,right,20.0,0,0,0.48515583299740683,428277,001,2024-09-06_11h52.35.143,adaptive staircase 1,2024.1.5,None,2024-09-06 11h52.38.268443 +0530,
30,0.5,20.0,52.8417213329958,,52.829114583000774,52.8417213329958,53.32505670799583,53.32505670799583,53.32917566699325,,53.37697445799131,right,20.0,1,1,0.04695720899326261,428277,001,2024-09-06_11h52.35.143,adaptive staircase 1,2024.1.5,None,2024-09-06 11h52.38.268443 +0530,
31,0.5,20.0,53.38390216699918,,53.37714724999387,53.38390216699918,53.8750443750032,53.8750443750032,53.878657458000816,54.16224583299481,54.76552737499878,right,20.0,1,1,0.8850307919929037,428277,001,2024-09-06_11h52.35.143,adaptive staircase 1,2024.1.5,None,2024-09-06 11h52.38.268443 +0530,
32,0.5,20.0,54.77485258299566,,54.765690457992605,54.77485258299566,55.26217587500287,55.26217587500287,55.26217587500287,,55.31267758300237,right,20.0,0,0,0.049102916003903374,428277,001,2024-09-06_11h52.35.143,adaptive staircase 1,2024.1.5,None,2024-09-06 11h52.38.268443 +0530,
33,0.5,20.0,55.32502916699741,,55.31277891699574,55.32502916699741,55.808331583000836,55.808331583000836,55.81239220799762,56.095308207994094,56.830209749998176,left,-20.0,0,0,1.0188524999975925,428277,001,2024-09-06_11h52.35.143,adaptive staircase 1,2024.1.5,None,2024-09-06 11h52.38.268443 +0530,
34,0.5,20.0,56.841627041998436,,56.83031525000115,56.841627041998436,57.32506899999862,57.32506899999862,57.3297596249904,57.61234195799625,58.44387137499871,right,20.0,0,0,1.1073081670037936,428277,001,2024-09-06_11h52.35.143,adaptive staircase 1,2024.1.5,None,2024-09-06 11h52.38.268443 +0530,
35,0.5,20.0,58.45319458299491,,58.444073958002264,58.45319458299491,58.94192516698968,58.94192516698968,58.94622183300089,,59.060201707994565,right,20.0,1,1,0.1140516660088906,428277,001,2024-09-06_11h52.35.143,adaptive staircase 1,2024.1.5,None,2024-09-06 11h52.38.268443 +0530,
36,0.5,20.0,59.067096749990014,,59.060324124991894,59.067096749990014,59.55825633299537,59.55825633299537,59.5618442499981,59.844952582992846,59.960489207995124,left,-20.0,0,0,0.39365754200844094,428277,001,2024-09-06_11h52.35.143,adaptive staircase 1,2024.1.5,None,2024-09-06 11h52.38.268443 +0530,
37,0.5,20.0,59.96960562499589,,59.96069987499504,59.96960562499589,60.458613041992066,60.458613041992066,60.46311670799332,60.744590832997346,61.56464483299351,left,-20.0,0,0,1.1026929170038784,428277,001,2024-09-06_11h52.35.143,adaptive staircase 1,2024.1.5,None,2024-09-06 11h52.38.268443 +0530,
38,0.5,20.0,61.57412233299692,,61.56482120799774,61.57412233299692,62.05835541700071,62.05835541700071,62.06190266700287,62.34578495800088,62.561195000002044,left,-20.0,1,1,0.4985657090001041,428277,001,2024-09-06_11h52.35.143,adaptive staircase 1,2024.1.5,None,2024-09-06 11h52.38.268443 +0530,
39,0.5,20.0,62.570645749990945,,62.56137745799788,62.570645749990945,63.05828208300227,63.05828208300227,63.06206716700399,63.3452306669933,63.761042666999856,left,-20.0,0,0,0.6941435829940019,428277,001,2024-09-06_11h52.35.143,adaptive staircase 1,2024.1.5,None,2024-09-06 11h52.38.268443 +0530,
40,0.5,20.0,63.770937583001796,,63.76126595798996,63.770937583001796,64.25867608300177,64.25867608300177,64.26396924999426,64.54573583300225,64.79398258299625,right,20.0,0,0,0.5239841250004247,428277,001,2024-09-06_11h52.35.143,adaptive staircase 1,2024.1.5,None,2024-09-06 11h52.38.268443 +0530,
41,0.5,20.0,64.80219237499114,,64.79414458299289,64.80219237499114,65.29170033299306,65.29170033299306,65.2953217500035,65.57866529199237,65.87787295799353,right,20.0,1,1,0.5809414160030428,428277,001,2024-09-06_11h52.35.143,adaptive staircase 1,2024.1.5,None,2024-09-06 11h52.38.268443 +0530,
42,0.5,20.0,65.88739808299579,,65.87811666699417,65.88739808299579,66.37510304199532,66.37510304199532,66.380227207992,66.66209166699264,67.04393924999749,right,20.0,0,0,0.6560828750079963,428277,001,2024-09-06_11h52.35.143,adaptive staircase 1,2024.1.5,None,2024-09-06 11h52.38.268443 +0530,
43,0.5,20.0,67.05361704199458,,67.04415716699441,67.05361704199458,67.5417589169956,67.5417589169956,67.5458466669952,67.82915162500285,67.96409795799991,left,-20.0,0,0,0.41860933300631586,428277,001,2024-09-06_11h52.35.143,adaptive staircase 1,2024.1.5,None,2024-09-06 11h52.38.268443 +0530,
44,0.5,20.0,67.97421904199291,,67.96425866699428,67.97421904199291,68.46376170800067,68.46376170800067,68.46376170800067,68.75837037499878,68.97705162499915,right,20.0,0,0,0.5056998329964699,428277,001,2024-09-06_11h52.35.143,adaptive staircase 1,2024.1.5,None,2024-09-06 11h52.38.268443 +0530,
45,0.5,20.0,68.98600883300242,,68.97719783299544,68.98600883300242,69.47508020799432,69.47508020799432,69.47867920799763,69.76202116700006,70.03161949999048,left,-20.0,0,0,0.5535120420099702,428277,001,2024-09-06_11h52.35.143,adaptive staircase 1,2024.1.5,None,2024-09-06 11h52.38.268443 +0530,
46,0.5,20.0,70.0409650419897,,70.03179012499459,70.0409650419897,70.529503999991,70.529503999991,70.529503999991,70.82524029198976,71.24343920800311,right,20.0,0,0,0.7090402500034543,428277,001,2024-09-06_11h52.35.143,adaptive staircase 1,2024.1.5,None,2024-09-06 11h52.38.268443 +0530,
47,0.5,20.0,71.25002895799116,,71.24356604200148,71.25002895799116,71.74178487499012,71.74178487499012,71.74534287500137,72.02910908299964,72.4975114580011,right,20.0,1,1,0.7514946249866625,428277,001,2024-09-06_11h52.35.143,adaptive staircase 1,2024.1.5,None,2024-09-06 11h52.38.268443 +0530,
48,0.5,20.0,72.50766925000062,,72.49766891699983,72.50766925000062,72.99174358299933,72.99174358299933,72.9952931250009,73.2789470419957,74.08089666700107,right,20.0,0,0,1.0870216250041267,428277,001,2024-09-06_11h52.35.143,adaptive staircase 1,2024.1.5,None,2024-09-06 11h52.38.268443 +0530,
49,0.5,20.0,74.09087316699151,,74.08108466699196,74.09087316699151,74.57507949999126,74.57507949999126,74.57948000000033,74.8620675830025,75.36070937500335,right,20.0,1,1,0.7786311250092695,428277,001,2024-09-06_11h52.35.143,adaptive staircase 1,2024.1.5,None,2024-09-06 11h52.38.268443 +0530,
